VERSION 19b
Control_state [-]; ARDrone_state [-]; Time [s];     AccX_raw [LSB]; AccY_raw [LSB]; AccZ_raw [LSB];     GyroX_raw [LSB]; GyroY_raw [LSB]; GyroZ_raw [LSB]; GyroX_110_raw [LSB]; GyroY_110_raw [LSB];Battery_Voltage_raw [mV];     Alim_3V3 [LSB]; vrefEpson [LSB]; vrefIDG [LSB]; flag_echo_ini [LSB]; us_debut_echo [LSB]; us_fin_echo [LSB]; us_association_echo; us_distance_echo [LSB];     us_courbe_temps [LSB]; us_courbe_valeur [LSB]; us_courbe_ref [LSB];    Accs_temperature [K]; Gyro_temperature [LSB]; AccX_phys_filt [mg]; AccY_phys_filt [mg]; AccZ_phys_filt [mg];     GyroX_phys_filt [deg/s]; GyroY_phys_filt [deg/s]; GyroZ_phys_filt [deg/s];    GyroX_offset [deg/s]; GyroY_offset [deg/s]; GyroZ_offset [deg/s];     Theta_acc [mdeg]; Phi_acc [mdeg];    Theta_ref_embedded [mdeg]; Phi_ref_embedded [mdeg]; Psi_ref_embedded [mdeg]; Theta_ref_int [mdeg]; Phi_ref_int [mdeg];     Pitch_ref_embedded [mdeg]; Roll_ref_embedded [mdeg]; Yaw_ref_embedded [mdeg/s];     Theta_trim_embedded [mdeg]; Phi_trim_embedded [mdeg]; Yaw_trim_embedded [mdeg/s];     Pitch_rc_embedded [-]; Roll_rc_embedded [-]; Yaw_rc_embedded [-]; Gaz_rc_embedded [-]; Ag_rc_embedded [-]; User_Input [-];     PWM1 [PWM]; PWM2 [PWM]; PWM3 [PWM]; PWM4 [PWM];    SAT_PWM1 [PWM]; SAT_PWM2 [PWM]; SAT_PWM3 [PWM]; SAT_PWM4 [PWM];    Gaz_feed_forward [PWM]; Gaz_altitude [PWM]; Altitude_integral [mm/s]; Vz_Ref [mm/s] ;    u_pitch [PWM]; u_roll [PWM]; u_yaw [PWM]; yaw_u_I [PWM];    u_pitch_planif [PWM]; u_roll_planif [PWM]; u_yaw_planif [PWM]; u_gaz_planif [PWM];    Current_motor1 [mA]; Current_motor2 [mA]; Current_motor3 [mA]; Current_motor4 [mA];    Altitude_vision [mm]; Altitude_vz [mm/s]; Altitude_ref_embedded [mm]; Altitude_raw [mm];     Observer AccZ [m/s2]; Observer altitude US [m]; Estimated Altitude[m]; Estimated Vz [m/s]; Estimated acc bias [m/s2];    Observer state [-]; vb 1; vb 2;	Observer flight state [-];    Vision_tx_raw [-]; Vision_ty_raw [-]; Vision_tz_raw [-];   Vision_State [-]; Vision_defined [-];    Vision_phi_trim[rad]; Vision_phi_ref_prop[rad]; Vision_theta_trim[rad]; Vision_theta_ref_prop[rad];    Vx_body [mm/s]; Vy_body [mm/s]; Vz_body [mm/s];    New_raw_picture [-]; T_capture; F_capture; P_capture; delta_Phi; delta_Theta; delta_Psi; Alt_capture [-]; time_capture [s];	Demo_vbat [-]; Demo_theta [mdeg]; Demo_phi [mdeg]; Demo_psi [mdeg];  Demo_altitude [mm];  Demo_vx [mm/s]; Demo_vy [mm/s]; Demo_vz [mm/s];Demo_num_frames [-];    Demo_detect_rot_m11 [-]; Demo_detect_rot_m12 [-]; Demo_detect_rot_m13 [-]; Demo_detect_rot_m21 [-]; Demo_detect_rot_m22 [-]; Demo_detect_rot_m23 [-];    Demo_detect_rot_m31 [-]; Demo_detect_rot_m32 [-]; Demo_detect_rot_m33 [-]; Demo_detect_trans_v1 [-]; Demo_detect_trans_v2 [-]; Demo_detect_trans_v3 [-]; 	Demo_detect_tag_index [-]; Demo_camera_type [-]; Demo_drone_camera_rot_m11 [-]; Demo_drone_camera_rot_m12 [-]; Demo_drone_camera_rot_m13 [-];    Demo_drone_camera_rot_m21 [-]; Demo_drone_camera_rot_m22 [-]; Demo_drone_camera_rot_m23 [-]; Demo_drone_camera_rot_m31 [-]; Demo_drone_camera_rot_m32 [-];    Demo_drone_camera_rot_m33 [-]; Demo_drone_camera_trans_x [-]; Demo_drone_camera_trans_y [-]; Demo_drone_camera_trans_z [-];	nd_iphone_flag [-]; nd_iphone_phi [-]; nd_iphone_theta [-]; nd_iphone_gaz [-]; nd_iphone_yaw [-];	quant [-]; encoded_frame_size [bytes]; encoded_frame_number [-]; atcmd_ref_seq [-]; atcmd_mean_ref_gap [ms]; atcmd_var_ref_gap [SU]; atcmd_ref_quality[-];Locked_0; X_0; Y_0; Locked_1; X_1; Y_1; Locked_2; X_2; Y_2; Locked_3; X_3; Y_3; Locked_4; X_4; Y_4; Locked_5; X_5; Y_5; Locked_6; X_6; Y_6; Locked_7; X_7; Y_7; Locked_8; X_8; Y_8; Locked_9; X_9; Y_9; Locked_10; X_10; Y_10; Locked_11; X_11; Y_11; Locked_12; X_12; Y_12; Locked_13; X_13; Y_13; Locked_14; X_14; Y_14; Locked_15; X_15; Y_15; Locked_16; X_16; Y_16; Locked_17; X_17; Y_17; Locked_18; X_18; Y_18; Locked_19; X_19; Y_19; Locked_20; X_20; Y_20; Locked_21; X_21; Y_21; Locked_22; X_22; Y_22; Locked_23; X_23; Y_23; Locked_24; X_24; Y_24; Locked_25; X_25; Y_25; Locked_26; X_26; Y_26; Locked_27; X_27; Y_27; Locked_28; X_28; Y_28; Locked_29; X_29; Y_29; Nb_detected; Type_0; Xd_0; Yd_0; W_0; H_0; D_0; O_0; Type_1; Xd_1; Yd_1; W_1; H_1; D_1; O_1; Type_2; Xd_2; Yd_2; W_2; H_2; D_2; O_2; Type_3; Xd_3; Yd_3; W_3; H_3; D_3; O_3; Perf_szo [ms]; Perf_corners [ms]; Perf_compute [ms]; Perf_tracking [ms]; Perf_trans [ms]; Perf_update [ms]; Perf_Custom_0; Perf_Custom_1; Perf_Custom_2; Perf_Custom_3; Perf_Custom_4; Perf_Custom_5; Perf_Custom_6; Perf_Custom_7; Perf_Custom_8; Perf_Custom_9; Perf_Custom_10; Perf_Custom_11; Perf_Custom_12; Perf_Custom_13; Perf_Custom_14; Perf_Custom_15; Perf_Custom_16; Perf_Custom_17; Perf_Custom_18; Perf_Custom_19; Watchdog Control [-]; flag_new_picture [-]; Sample time [s]; 
0; 3481927764;265.913856; 2112; 1984; 3040; 1682; 1684; 1668; 1637; 1651; 11789; 0000; 0000; 1695; 0001; 0000; 0000; 3758; 0000; 0000; 0000; 0000; 41.066154; 1529;  46.025913;  47.113384; -974.882812; -0.234691;  0.177061;  0.208841; -1.252654;  0.020466;  0.000000;  2699.000000; -2766.000000;  0000; 0000; 0000; 0000; 0000; 000000; 000000; 000000;  3.227897; -0.682448;  0.000000; 0000; 0000; 0000; 0000; 0000; 290717696; 000; 000; 000; 000; 255; 255; 255; 255; 000; 000;  0.000000;  0.000000; 000; 000; 000;  0.000000; 000; 000; 000;  0.000000; 0000; 0000; 0000; 0000; 0215; 0.000000; 0000; 0215; 0.000000; 0.000000; 0.000000; 0.000000; 0.000000; 0000; 0.000000; 0.000000; 0000;  0.000000;  0.000000;  0.000000; 0; 0;  0.000000; 0.000000; 0.000000; 0.000000;  0.000000;  0.000000;  0.000000; 0; -0.010339; -0.034081; -2.088351; -0.000042;  0.000051;  0.000006;  215; 265.895076; 0073; -589.000000; -1955.000000; -119674.000000; 0215; 0.000000; 0.000000; 0.000000 ; 4519; 0.000000; 0.000000; 0.000000; 0.000000; 0.000000; 0.000000; 0.000000; 0.000000; 0.000000; 0.000000; 0.000000; 0.000000; 0000; 0003; -0.495041; 0.868175; 0.034744; -0.868809; -0.495084; -0.007960; 0.010291; -0.034127; 0.999365; 0.000000; 0.000000; 0.000000; 0; 0.000000; 0.000000; 0.000000; 0.000000; 31; 18268; 4519; 251; 0; 7.681146; 290; -1; 88; 72; 0; 51; 24; 0; 85; 24; 1; 149; 28; 1; 164; 31; 0; 23; 54; 0; 51; 54; 0; 85; 54; 0; 147; 45; 0; 149; 54; 0; 23; 90; 0; 51; 90; 0; 85; 90; 0; 119; 90; 0; 149; 90; 0; 23; 119; 0; 51; 119; 0; 85; 119; 0; 119; 119; 0; 149; 119; 0; 0; 0; 0; 0; 0; 0; 0; 0; 0; 0; 0; 0; 0; 0; 0; 0; 0; 0; 0; 0; 0; 0; 0; 0; 0; 0; 0; 0; 0; 0; 0; 0; 0; 0; 0; 0; 0.000000; 0; 0; 0; 0; 0; 0; 0.000000; 0; 0; 0; 0; 0; 0; 0.000000; 0; 0; 0; 0; 0; 0; 0.000000; 0.000000; 0.000000; 0.000000; 0.000000; 0.000000; 0.000000; 0.000000; 0.000000; 0.000000; 0.000000; 0.000000; 0.000000; 0.000000; 0.000000; 0.000000; 0.000000; 0.000000; 0.000000; 0.000000; 0.000000; 0.000000; 0.000000; 0.000000; 0.000000; 0.000000; 0.000000; 4875; 0; 1334101893.115673
0; 3481927764;265.918890; 2112; 1984; 3040; 1682; 1685; 1669; 1642; 1653; 11789; 0000; 0000; 1694; 0001; 0000; 0000; 3758; 0000; 0000; 0000; 0000; 41.067520; 1527;  46.039066;  46.569923; -975.446533; -0.290362;  0.027804;  0.099201; -1.252647;  0.020467;  0.000000;  2699.000000; -2733.000000;  0000; 0000; 0000; 0000; 0000; 000000; 000000; 000000;  3.227897; -0.682448;  0.000000; 0000; 0000; 0000; 0000; 0000; 290717696; 000; 000; 000; 000; 255; 255; 255; 255; 000; 000;  0.000000;  0.000000; 000; 000; 000;  0.000000; 000; 000; 000;  0.000000; 0000; 0000; 0000; 0000; 0215; 0.000000; 0000; 0215; 0.000000; 0.000000; 0.000000; 0.000000; 0.000000; 0000; 0.000000; 0.000000; 0000;  0.000000;  0.000000;  0.000000; 0; 0;  0.000000; 0.000000; 0.000000; 0.000000;  0.000000;  0.000000;  0.000000; 0; -0.010303; -0.034110; -2.088629; -0.000042;  0.000051;  0.000006;  215; 265.911718; 0073; -589.000000; -1957.000000; -119679.000000; 0215; 0.000000; 0.000000; 0.000000 ; 4519; 0.000000; 0.000000; 0.000000; 0.000000; 0.000000; 0.000000; 0.000000; 0.000000; 0.000000; 0.000000; 0.000000; 0.000000; 0000; 0003; -0.495119; 0.868129; 0.034769; -0.868764; -0.495161; -0.007976; 0.010292; -0.034155; 0.999364; 0.000000; 0.000000; 0.000000; 0; 0.000000; 0.000000; 0.000000; 0.000000; 31; 18268; 4519; 251; 0; 7.141428; 292; -1; 88; 72; 0; 51; 24; 0; 85; 24; 1; 149; 28; 1; 164; 31; 0; 23; 54; 0; 51; 54; 0; 85; 54; 0; 147; 45; 0; 149; 54; 0; 23; 90; 0; 51; 90; 0; 85; 90; 0; 119; 90; 0; 149; 90; 0; 23; 119; 0; 51; 119; 0; 85; 119; 0; 119; 119; 0; 149; 119; 0; 0; 0; 0; 0; 0; 0; 0; 0; 0; 0; 0; 0; 0; 0; 0; 0; 0; 0; 0; 0; 0; 0; 0; 0; 0; 0; 0; 0; 0; 0; 0; 0; 0; 0; 0; 0; 0.000000; 0; 0; 0; 0; 0; 0; 0.000000; 0; 0; 0; 0; 0; 0; 0.000000; 0; 0; 0; 0; 0; 0; 0.000000; 0.000000; 0.000000; 0.000000; 0.000000; 0.000000; 0.000000; 0.000000; 0.000000; 0.000000; 0.000000; 0.000000; 0.000000; 0.000000; 0.000000; 0.000000; 0.000000; 0.000000; 0.000000; 0.000000; 0.000000; 0.000000; 0.000000; 0.000000; 0.000000; 0.000000; 0.000000; 4993; 0; 1334101893.121103
0; 2408185876;265.923877; 2112; 1984; 3044; 1682; 1684; 1669; 1641; 1649; 11789; 0000; 0000; 1695; 0001; 0000; 0000; 3758; 0000; 0000; 0000; 0000; 41.067307; 1528;  46.219780;  46.325062; -978.188171; -0.230207;  0.068365;  0.039363; -1.252642;  0.020468;  0.000000;  2702.000000; -2711.000000;  0000; 0000; 0000; 0000; 0000; 000000; 000000; 000000;  3.227897; -0.682448;  0.000000; 0000; 0000; 0000; 0000; 0000; 290717696; 000; 000; 000; 000; 255; 255; 255; 255; 000; 000;  0.000000;  0.000000; 000; 000; 000;  0.000000; 000; 000; 000;  0.000000; 0000; 0000; 0000; 0000; 0215; 0.000000; 0000; 0215; 0.000000; 0.000000; 0.000000; 0.000000; 0.000000; 0000; 0.000000; 0.000000; 0000;  0.000000;  0.000000;  0.000000; 0; 0;  0.000000; 0.000000; 0.000000; 0.000000;  0.000000;  0.000000;  0.000000; 0; -0.010303; -0.034110; -2.088629; -0.000042;  0.000051;  0.000006;  215; 265.911718; 0073; -589.000000; -1958.000000; -119684.000000; 0215; 0.000000; 0.000000; 0.000000 ; 4519; 0.000000; 0.000000; 0.000000; 0.000000; 0.000000; 0.000000; 0.000000; 0.000000; 0.000000; 0.000000; 0.000000; 0.000000; 0000; 0003; -0.495201; 0.868082; 0.034786; -0.868718; -0.495243; -0.007992; 0.010290; -0.034177; 0.999363; 0.000000; 0.000000; 0.000000; 0; 0.000000; 0.000000; 0.000000; 0.000000; 31; 18268; 4519; 253; 0; 7.141428; 293; -1; 88; 72; 0; 51; 24; 0; 85; 24; 1; 149; 28; 1; 164; 31; 0; 23; 54; 0; 51; 54; 0; 85; 54; 0; 147; 45; 0; 149; 54; 0; 23; 90; 0; 51; 90; 0; 85; 90; 0; 119; 90; 0; 149; 90; 0; 23; 119; 0; 51; 119; 0; 85; 119; 0; 119; 119; 0; 149; 119; 0; 0; 0; 0; 0; 0; 0; 0; 0; 0; 0; 0; 0; 0; 0; 0; 0; 0; 0; 0; 0; 0; 0; 0; 0; 0; 0; 0; 0; 0; 0; 0; 0; 0; 0; 0; 0; 0.000000; 0; 0; 0; 0; 0; 0; 0.000000; 0; 0; 0; 0; 0; 0; 0.000000; 0; 0; 0; 0; 0; 0; 0.000000; 0.000000; 0.000000; 0.000000; 0.000000; 0.000000; 0.000000; 0.000000; 0.000000; 0.000000; 0.000000; 0.000000; 0.000000; 0.000000; 0.000000; 0.000000; 0.000000; 0.000000; 0.000000; 0.000000; 0.000000; 0.000000; 0.000000; 0.000000; 0.000000; 0.000000; 0.000000; 4946; 0; 1334101893.126159
0; 2408185876;265.928942; 2112; 1984; 3044; 1682; 1684; 1669; 1641; 1651; 11789; 0000; 0000; 1695; 0001; 0000; 0000; 3758; 0000; 0000; 0000; 0000; 41.068665; 1529;  46.387691;  46.527996; -980.318787; -0.210170;  0.009342; -0.078588; -1.252636;  0.020467;  0.000000;  2706.000000; -2717.000000;  0000; 0000; 0000; 0000; 0000; 000000; 000000; 000000;  3.227897; -0.682448;  0.000000; 0000; 0000; 0000; 0000; 0000; 290717696; 000; 000; 000; 000; 255; 255; 255; 255; 000; 000;  0.000000;  0.000000; 000; 000; 000;  0.000000; 000; 000; 000;  0.000000; 0000; 0000; 0000; 0000; 0215; 0.000000; 0000; 0215; 0.000000; 0.000000; 0.000000; 0.000000; 0.000000; 0000; 0.000000; 0.000000; 0000;  0.000000;  0.000000;  0.000000; 0; 0;  0.000000; 0.000000; 0.000000; 0.000000;  0.000000;  0.000000;  0.000000; 0; -0.010303; -0.034110; -2.088629; -0.000083;  0.000033;  0.000045;  215; 265.911718; 0073; -589.000000; -1959.000000; -119690.000000; 0215; 0.000000; 0.000000; 0.000000 ; 4519; 0.000000; 0.000000; 0.000000; 0.000000; 0.000000; 0.000000; 0.000000; 0.000000; 0.000000; 0.000000; 0.000000; 0.000000; 0000; 0003; -0.495292; 0.868029; 0.034804; -0.868666; -0.495334; -0.008004; 0.010292; -0.034197; 0.999362; 0.000000; 0.000000; 0.000000; 0; 0.000000; 0.000000; 0.000000; 0.000000; 31; 18268; 4519; 253; 0; 7.810250; 294; -1; 88; 72; 0; 51; 24; 0; 85; 24; 1; 149; 28; 1; 164; 31; 0; 23; 54; 0; 51; 54; 0; 85; 54; 0; 147; 45; 0; 149; 54; 0; 23; 90; 0; 51; 90; 0; 85; 90; 0; 119; 90; 0; 149; 90; 0; 23; 119; 0; 51; 119; 0; 85; 119; 0; 119; 119; 0; 149; 119; 0; 0; 0; 0; 0; 0; 0; 0; 0; 0; 0; 0; 0; 0; 0; 0; 0; 0; 0; 0; 0; 0; 0; 0; 0; 0; 0; 0; 0; 0; 0; 0; 0; 0; 0; 0; 0; 0.000000; 0; 0; 0; 0; 0; 0; 0.000000; 0; 0; 0; 0; 0; 0; 0.000000; 0; 0; 0; 0; 0; 0; 0.000000; 0.000000; 0.000000; 0.000000; 0.000000; 0.000000; 0.000000; 0.000000; 0.000000; 0.000000; 0.000000; 0.000000; 0.000000; 0.000000; 0.000000; 0.000000; 0.000000; 0.000000; 0.000000; 0.000000; 0.000000; 0.000000; 0.000000; 0.000000; 0.000000; 0.000000; 0.000000; 5024; 0; 1334101893.130865
0; 2408185876;265.933897; 2112; 1984; 3048; 1682; 1684; 1668; 1640; 1646; 11789; 0000; 0000; 1695; 0001; 0792; 1735; 0000; 0000; 0006; 2036; 4000; 41.070023; 1529;  46.563400;  46.500393; -982.185486; -0.258667;  0.083940; -0.016919; -1.252631;  0.020465;  0.000000;  2711.000000; -2710.000000;  0000; 0000; 0000; 0000; 0000; 000000; 000000; 000000;  3.227897; -0.682448;  0.000000; 0000; 0000; 0000; 0000; 0000; 290717696; 000; 000; 000; 000; 255; 255; 255; 255; 000; 000;  0.000000;  0.000000; 000; 000; 000;  0.000000; 000; 000; 000;  0.000000; 0000; 0000; 0000; 0000; 0215; 0.000000; 0000; 0215; 0.000000; 0.000000; 0.000000; 0.000000; 0.000000; 0000; 0.000000; 0.000000; 0000;  0.000000;  0.000000;  0.000000; 0; 0;  0.000000; 0.000000; 0.000000; 0.000000;  0.000000;  0.000000;  0.000000; 0; -0.010290; -0.034185; -2.088893; -0.000083;  0.000033;  0.000045;  215; 265.928335; 0073; -589.000000; -1961.000000; -119696.000000; 0215; 0.000000; 0.000000; 0.000000 ; 4519; 0.000000; 0.000000; 0.000000; 0.000000; 0.000000; 0.000000; 0.000000; 0.000000; 0.000000; 0.000000; 0.000000; 0.000000; 0000; 0003; -0.495379; 0.867979; 0.034822; -0.868617; -0.495420; -0.008024; 0.010287; -0.034221; 0.999361; 0.000000; 0.000000; 0.000000; 0; 0.000000; 0.000000; 0.000000; 0.000000; 31; 18268; 4519; 253; 0; 7.810250; 296; -1; 88; 72; 0; 51; 24; 0; 85; 24; 1; 149; 28; 1; 164; 31; 0; 23; 54; 0; 51; 54; 0; 85; 54; 0; 147; 45; 0; 149; 54; 0; 23; 90; 0; 51; 90; 0; 85; 90; 0; 119; 90; 0; 149; 90; 0; 23; 119; 0; 51; 119; 0; 85; 119; 0; 119; 119; 0; 149; 119; 0; 0; 0; 0; 0; 0; 0; 0; 0; 0; 0; 0; 0; 0; 0; 0; 0; 0; 0; 0; 0; 0; 0; 0; 0; 0; 0; 0; 0; 0; 0; 0; 0; 0; 0; 0; 0; 0.000000; 0; 0; 0; 0; 0; 0; 0.000000; 0; 0; 0; 0; 0; 0; 0.000000; 0; 0; 0; 0; 0; 0; 0.000000; 0.000000; 0.000000; 0.000000; 0.000000; 0.000000; 0.000000; 0.000000; 0.000000; 0.000000; 0.000000; 0.000000; 0.000000; 0.000000; 0.000000; 0.000000; 0.000000; 0.000000; 0.000000; 0.000000; 0.000000; 0.000000; 0.000000; 0.000000; 0.000000; 0.000000; 0.000000; 4914; 0; 1334101893.135546
0; 2408185876;265.938909; 2112; 1988; 3044; 1682; 1684; 1669; 1638; 1648; 11789; 0000; 0000; 1695; 0001; 0000; 0000; 3758; 0000; 0164; 3314; 4000; 41.069801; 1529;  46.656830;  44.143467; -981.906921; -0.259015;  0.236942;  0.011314; -1.252638;  0.020463;  0.000000;  2717.000000; -2574.000000;  0000; 0000; 0000; 0000; 0000; 000000; 000000; 000000;  3.227897; -0.682448;  0.000000; 0000; 0000; 0000; 0000; 0000; 290717696; 000; 000; 000; 000; 255; 255; 255; 255; 000; 000;  0.000000;  0.000000; 000; 000; 000;  0.000000; 000; 000; 000;  0.000000; 0000; 0000; 0000; 0000; 0215; 0.000000; 0000; 0215; 0.000000; 0.000000; 0.000000; 0.000000; 0.000000; 0000; 0.000000; 0.000000; 0000;  0.000000;  0.000000;  0.000000; 0; 0;  0.000000; 0.000000; 0.000000; 0.000000;  0.000000;  0.000000;  0.000000; 0; -0.010290; -0.034185; -2.088893; -0.000083;  0.000033;  0.000045;  215; 265.928335; 0073; -588.000000; -1962.000000; -119702.000000; 0215; 0.000000; 0.000000; 0.000000 ; 4520; 0.000000; 0.000000; 0.000000; 0.000000; 0.000000; 0.000000; 0.000000; 0.000000; 0.000000; 0.000000; 0.000000; 0.000000; 0000; 0003; -0.495463; 0.867931; 0.034827; -0.868568; -0.495504; -0.008052; 0.010269; -0.034239; 0.999361; 0.000000; 0.000000; 0.000000; 0; 0.000000; 0.000000; 0.000000; 0.000000; 31; 18360; 4520; 253; 0; 7.810250; 297; -1; 88; 72; 0; 51; 24; 0; 85; 24; 1; 149; 28; 1; 164; 31; 0; 23; 54; 0; 51; 54; 0; 85; 54; 0; 147; 45; 0; 149; 54; 0; 23; 90; 0; 51; 90; 0; 85; 90; 0; 119; 90; 0; 149; 90; 0; 23; 119; 0; 51; 119; 0; 85; 119; 0; 119; 119; 0; 149; 119; 0; 0; 0; 0; 0; 0; 0; 0; 0; 0; 0; 0; 0; 0; 0; 0; 0; 0; 0; 0; 0; 0; 0; 0; 0; 0; 0; 0; 0; 0; 0; 0; 0; 0; 0; 0; 0; 0.000000; 0; 0; 0; 0; 0; 0; 0.000000; 0; 0; 0; 0; 0; 0; 0.000000; 0; 0; 0; 0; 0; 0; 0.000000; 0.000000; 0.000000; 0.000000; 0.000000; 0.000000; 0.000000; 0.000000; 0.000000; 0.000000; 0.000000; 0.000000; 0.000000; 0.000000; 0.000000; 0.000000; 0.000000; 0.000000; 0.000000; 0.000000; 0.000000; 0.000000; 0.000000; 0.000000; 0.000000; 0.000000; 0.000000; 4972; 0; 1334101893.140771
0; 2408185940;265.943914; 2112; 1988; 3048; 1683; 1685; 1669; 1644; 1649; 11789; 0000; 0000; 1695; 0001; 0000; 0000; 3758; 0000; 0328; 3556; 4000; 41.071152; 1529;  46.748421;  41.827274; -981.641541; -0.098805;  0.007817;  0.026885; -1.252658;  0.020460;  0.000000;  2724.000000; -2439.000000;  0000; 0000; 0000; 0000; 0000; 000000; 000000; 000000;  3.227897; -0.682448;  0.000000; 0000; 0000; 0000; 0000; 0000; 290717696; 000; 000; 000; 000; 255; 255; 255; 255; 000; 000;  0.000000;  0.000000; 000; 000; 000;  0.000000; 000; 000; 000;  0.000000; 0000; 0000; 0000; 0000; 0215; 0.000000; 0000; 0215; 0.000000; 0.000000; 0.000000; 0.000000; 0.000000; 0000; 0.000000; 0.000000; 0000;  0.000000;  0.000000;  0.000000; 0; 0;  0.000000; 0.000000; 0.000000; 0.000000;  0.000000;  0.000000;  0.000000; 0; -0.010290; -0.034185; -2.088893; -0.000083;  0.000033;  0.000045;  215; 265.928335; 0073; -588.000000; -1962.000000; -119707.000000; 0215; 0.000000; 0.000000; 0.000000 ; 4520; 0.000000; 0.000000; 0.000000; 0.000000; 0.000000; 0.000000; 0.000000; 0.000000; 0.000000; 0.000000; 0.000000; 0.000000; 0000; 0003; -0.495546; 0.867883; 0.034824; -0.868521; -0.495587; -0.008053; 0.010270; -0.034236; 0.999361; 0.000000; 0.000000; 0.000000; 0; 0.000000; 0.000000; 0.000000; 0.000000; 31; 18360; 4520; 259; 0; 7.810250; 299; -1; 88; 72; 0; 51; 24; 0; 85; 24; 1; 149; 28; 1; 164; 31; 0; 23; 54; 0; 51; 54; 0; 85; 54; 0; 147; 45; 0; 149; 54; 0; 23; 90; 0; 51; 90; 0; 85; 90; 0; 119; 90; 0; 149; 90; 0; 23; 119; 0; 51; 119; 0; 85; 119; 0; 119; 119; 0; 149; 119; 0; 0; 0; 0; 0; 0; 0; 0; 0; 0; 0; 0; 0; 0; 0; 0; 0; 0; 0; 0; 0; 0; 0; 0; 0; 0; 0; 0; 0; 0; 0; 0; 0; 0; 0; 0; 0; 0.000000; 0; 0; 0; 0; 0; 0; 0.000000; 0; 0; 0; 0; 0; 0; 0.000000; 0; 0; 0; 0; 0; 0; 0.000000; 0.000000; 0.000000; 0.000000; 0.000000; 0.000000; 0.000000; 0.000000; 0.000000; 0.000000; 0.000000; 0.000000; 0.000000; 0.000000; 0.000000; 0.000000; 0.000000; 0.000000; 0.000000; 0.000000; 0.000000; 0.000000; 0.000000; 0.000000; 0.000000; 0.000000; 0.000000; 4963; 0; 1334101893.146788
0; 2408185940;265.948924; 2112; 1988; 3048; 1682; 1684; 1669; 1640; 1649; 11789; 0000; 0000; 1695; 0001; 0000; 0000; 3758; 0000; 0490; 3589; 4000; 41.070930; 1529;  46.946774;  42.482956; -984.188171; -0.153977;  0.121750;  0.006658; -1.252675;  0.020456;  0.000000;  2728.000000; -2471.000000;  0000; 0000; 0000; 0000; 0000; 000000; 000000; 000000;  3.227897; -0.682448;  0.000000; 0000; 0000; 0000; 0000; 0000; 290717696; 000; 000; 000; 000; 255; 255; 255; 255; 000; 000;  0.000000;  0.000000; 000; 000; 000;  0.000000; 000; 000; 000;  0.000000; 0000; 0000; 0000; 0000; 0215; 0.000000; 0000; 0215; 0.000000; 0.000000; 0.000000; 0.000000; 0.000000; 0000; 0.000000; 0.000000; 0000;  0.000000;  0.000000;  0.000000; 0; 0;  0.000000; 0.000000; 0.000000; 0.000000;  0.000000;  0.000000;  0.000000; 0; -0.010270; -0.034245; -2.089290; -0.000069;  0.000029; -0.000003;  215; 265.944956; 0073; -587.000000; -1962.000000; -119713.000000; 0215; 0.000000; 0.000000; 0.000000 ; 4520; 0.000000; 0.000000; 0.000000; 0.000000; 0.000000; 0.000000; 0.000000; 0.000000; 0.000000; 0.000000; 0.000000; 0.000000; 0000; 0003; -0.495631; 0.867835; 0.034822; -0.868473; -0.495672; -0.008066; 0.010260; -0.034240; 0.999361; 0.000000; 0.000000; 0.000000; 0; 0.000000; 0.000000; 0.000000; 0.000000; 31; 18360; 4520; 259; 0; 2.449490; 298; -1; 88; 72; 0; 51; 24; 0; 85; 24; 1; 149; 28; 1; 164; 31; 0; 23; 54; 0; 51; 54; 0; 85; 54; 0; 147; 45; 0; 149; 54; 0; 23; 90; 0; 51; 90; 0; 85; 90; 0; 119; 90; 0; 149; 90; 0; 23; 119; 0; 51; 119; 0; 85; 119; 0; 119; 119; 0; 149; 119; 0; 0; 0; 0; 0; 0; 0; 0; 0; 0; 0; 0; 0; 0; 0; 0; 0; 0; 0; 0; 0; 0; 0; 0; 0; 0; 0; 0; 0; 0; 0; 0; 0; 0; 0; 0; 0; 0.000000; 0; 0; 0; 0; 0; 0; 0.000000; 0; 0; 0; 0; 0; 0; 0.000000; 0; 0; 0; 0; 0; 0; 0.000000; 0.000000; 0.000000; 0.000000; 0.000000; 0.000000; 0.000000; 0.000000; 0.000000; 0.000000; 0.000000; 0.000000; 0.000000; 0.000000; 0.000000; 0.000000; 0.000000; 0.000000; 0.000000; 0.000000; 0.000000; 0.000000; 0.000000; 0.000000; 0.000000; 0.000000; 0.000000; 4972; 0; 1334101893.159315
0; 2408185940;265.953937; 2112; 1988; 3048; 1682; 1684; 1669; 1641; 1650; 11789; 0000; 0000; 1695; 0001; 0000; 0000; 3758; 0000; 0654; 3590; 4000; 41.072281; 1528;  46.939526;  42.806576; -984.074646; -0.088596; -0.015629; -0.086461; -1.252690;  0.020452;  0.000000;  2728.000000; -2490.000000;  0000; 0000; 0000; 0000; 0000; 000000; 000000; 000000;  3.227897; -0.682448;  0.000000; 0000; 0000; 0000; 0000; 0000; 290717696; 000; 000; 000; 000; 255; 255; 255; 255; 000; 000;  0.000000;  0.000000; 000; 000; 000;  0.000000; 000; 000; 000;  0.000000; 0000; 0000; 0000; 0000; 0215; 0.000000; 0000; 0215; 0.000000; 0.000000; 0.000000; 0.000000; 0.000000; 0000; 0.000000; 0.000000; 0000;  0.000000;  0.000000;  0.000000; 0; 0;  0.000000; 0.000000; 0.000000; 0.000000;  0.000000;  0.000000;  0.000000; 0; -0.010270; -0.034245; -2.089290; -0.000069;  0.000029; -0.000003;  215; 265.944956; 0073; -588.000000; -1962.000000; -119719.000000; 0215; 0.000000; 0.000000; 0.000000 ; 4520; 0.000000; 0.000000; 0.000000; 0.000000; 0.000000; 0.000000; 0.000000; 0.000000; 0.000000; 0.000000; 0.000000; 0.000000; 0000; 0003; -0.495723; 0.867783; 0.034822; -0.868420; -0.495764; -0.008066; 0.010263; -0.034238; 0.999361; 0.000000; 0.000000; 0.000000; 0; 0.000000; 0.000000; 0.000000; 0.000000; 31; 18360; 4520; 259; 0; 2.449490; 298; -1; 88; 72; 0; 51; 24; 0; 85; 24; 1; 149; 28; 1; 164; 31; 0; 23; 54; 0; 51; 54; 0; 85; 54; 0; 147; 45; 0; 149; 54; 0; 23; 90; 0; 51; 90; 0; 85; 90; 0; 119; 90; 0; 149; 90; 0; 23; 119; 0; 51; 119; 0; 85; 119; 0; 119; 119; 0; 149; 119; 0; 0; 0; 0; 0; 0; 0; 0; 0; 0; 0; 0; 0; 0; 0; 0; 0; 0; 0; 0; 0; 0; 0; 0; 0; 0; 0; 0; 0; 0; 0; 0; 0; 0; 0; 0; 0; 0.000000; 0; 0; 0; 0; 0; 0; 0.000000; 0; 0; 0; 0; 0; 0; 0.000000; 0; 0; 0; 0; 0; 0; 0.000000; 0.000000; 0.000000; 0.000000; 0.000000; 0.000000; 0.000000; 0.000000; 0.000000; 0.000000; 0.000000; 0.000000; 0.000000; 0.000000; 0.000000; 0.000000; 0.000000; 0.000000; 0.000000; 0.000000; 0.000000; 0.000000; 0.000000; 0.000000; 0.000000; 0.000000; 0.000000; 4973; 0; 1334101893.159472
0; 2408185940;265.958920; 2112; 1984; 3048; 1682; 1684; 1669; 1643; 1649; 11789; 0000; 0000; 1695; 0001; 0000; 0000; 3758; 0000; 0816; 3596; 3510; 41.072052; 1529;  46.840435;  45.014008; -983.453064; -0.169444;  0.056166; -0.055128; -1.252694;  0.020449;  0.000000;  2724.000000; -2620.000000;  0000; 0000; 0000; 0000; 0000; 000000; 000000; 000000;  3.227897; -0.682448;  0.000000; 0000; 0000; 0000; 0000; 0000; 290717696; 000; 000; 000; 000; 255; 255; 255; 255; 000; 000;  0.000000;  0.000000; 000; 000; 000;  0.000000; 000; 000; 000;  0.000000; 0000; 0000; 0000; 0000; 0215; 0.000000; 0000; 0215; 0.000000; 0.000000; 0.000000; 0.000000; 0.000000; 0000; 0.000000; 0.000000; 0000;  0.000000;  0.000000;  0.000000; 0; 0;  0.000000; 0.000000; 0.000000; 0.000000;  0.000000;  0.000000;  0.000000; 0; -0.010270; -0.034245; -2.089290; -0.000069;  0.000029; -0.000003;  215; 265.944956; 0073; -587.000000; -1962.000000; -119725.000000; 0215; 0.000000; 0.000000; 0.000000 ; 4520; 0.000000; 0.000000; 0.000000; 0.000000; 0.000000; 0.000000; 0.000000; 0.000000; 0.000000; 0.000000; 0.000000; 0.000000; 0000; 0003; -0.495812; 0.867731; 0.034830; -0.868369; -0.495853; -0.008079; 0.010260; -0.034250; 0.999361; 0.000000; 0.000000; 0.000000; 0; 0.000000; 0.000000; 0.000000; 0.000000; 31; 18360; 4520; 259; 0; 2.449490; 298; -1; 88; 72; 0; 51; 24; 0; 85; 24; 1; 149; 28; 1; 164; 31; 0; 23; 54; 0; 51; 54; 0; 85; 54; 0; 147; 45; 0; 149; 54; 0; 23; 90; 0; 51; 90; 0; 85; 90; 0; 119; 90; 0; 149; 90; 0; 23; 119; 0; 51; 119; 0; 85; 119; 0; 119; 119; 0; 149; 119; 0; 0; 0; 0; 0; 0; 0; 0; 0; 0; 0; 0; 0; 0; 0; 0; 0; 0; 0; 0; 0; 0; 0; 0; 0; 0; 0; 0; 0; 0; 0; 0; 0; 0; 0; 0; 0; 0.000000; 0; 0; 0; 0; 0; 0; 0.000000; 0; 0; 0; 0; 0; 0; 0.000000; 0; 0; 0; 0; 0; 0; 0.000000; 0.000000; 0.000000; 0.000000; 0.000000; 0.000000; 0.000000; 0.000000; 0.000000; 0.000000; 0.000000; 0.000000; 0.000000; 0.000000; 0.000000; 0.000000; 0.000000; 0.000000; 0.000000; 0.000000; 0.000000; 0.000000; 0.000000; 0.000000; 0.000000; 0.000000; 0.000000; 4944; 0; 1334101893.162033
0; 2408185940;265.963945; 2112; 1984; 3048; 1683; 1684; 1669; 1641; 1651; 11789; 0000; 0000; 1695; 0001; 0000; 0000; 3758; 0000; 0980; 3604; 2367; 41.073402; 1527;  46.780949;  47.413845; -983.595886; -0.181360;  0.254206; -0.080654; -1.252684;  0.020446;  0.000000;  2719.000000; -2759.000000;  0000; 0000; 0000; 0000; 0000; 000000; 000000; 000000;  3.227897; -0.682448;  0.000000; 0000; 0000; 0000; 0000; 0000; 290717696; 000; 000; 000; 000; 255; 255; 255; 255; 000; 000;  0.000000;  0.000000; 000; 000; 000;  0.000000; 000; 000; 000;  0.000000; 0000; 0000; 0000; 0000; 0215; 0.000000; 0000; 0215; 0.000000; 0.000000; 0.000000; 0.000000; 0.000000; 0000; 0.000000; 0.000000; 0000;  0.000000;  0.000000;  0.000000; 0; 0;  0.000000; 0.000000; 0.000000; 0.000000;  0.000000;  0.000000;  0.000000; 0; -0.010270; -0.034245; -2.089290; -0.000033;  0.000011; -0.000005;  215; 265.944956; 0073; -586.000000; -1964.000000; -119731.000000; 0215; 0.000000; 0.000000; 0.000000 ; 4520; 0.000000; 0.000000; 0.000000; 0.000000; 0.000000; 0.000000; 0.000000; 0.000000; 0.000000; 0.000000; 0.000000; 0.000000; 0000; 0003; -0.495904; 0.867678; 0.034836; -0.868317; -0.495943; -0.008110; 0.010240; -0.034270; 0.999360; 0.000000; 0.000000; 0.000000; 0; 0.000000; 0.000000; 0.000000; 0.000000; 31; 18360; 4520; 259; 0; 2.449490; 297; -1; 88; 72; 0; 51; 24; 0; 85; 24; 1; 149; 28; 1; 164; 31; 0; 23; 54; 0; 51; 54; 0; 85; 54; 0; 147; 45; 0; 149; 54; 0; 23; 90; 0; 51; 90; 0; 85; 90; 0; 119; 90; 0; 149; 90; 0; 23; 119; 0; 51; 119; 0; 85; 119; 0; 119; 119; 0; 149; 119; 0; 0; 0; 0; 0; 0; 0; 0; 0; 0; 0; 0; 0; 0; 0; 0; 0; 0; 0; 0; 0; 0; 0; 0; 0; 0; 0; 0; 0; 0; 0; 0; 0; 0; 0; 0; 0; 0.000000; 0; 0; 0; 0; 0; 0; 0.000000; 0; 0; 0; 0; 0; 0; 0.000000; 0; 0; 0; 0; 0; 0; 0.000000; 0.000000; 0.000000; 0.000000; 0.000000; 0.000000; 0.000000; 0.000000; 0.000000; 0.000000; 0.000000; 0.000000; 0.000000; 0.000000; 0.000000; 0.000000; 0.000000; 0.000000; 0.000000; 0.000000; 0.000000; 0.000000; 0.000000; 0.000000; 0.000000; 0.000000; 0.000000; 4970; 0; 1334101893.168513
0; 2408185876;265.968954; 2112; 1984; 3044; 1682; 1684; 1668; 1639; 1649; 11789; 0000; 0000; 1695; 0001; 0000; 0000; 3758; 0000; 1142; 3573; 1742; 41.073174; 1529;  46.605988;  46.831661; -981.151306; -0.137675;  0.157367;  0.043641; -1.252677;  0.020444;  0.000000;  2716.000000; -2732.000000;  0000; 0000; 0000; 0000; 0000; 000000; 000000; 000000;  3.227897; -0.682448;  0.000000; 0000; 0000; 0000; 0000; 0000; 290717696; 000; 000; 000; 000; 255; 255; 255; 255; 000; 000;  0.000000;  0.000000; 000; 000; 000;  0.000000; 000; 000; 000;  0.000000; 0000; 0000; 0000; 0000; 0215; 0.000000; 0000; 0215; 0.000000; 0.000000; 0.000000; 0.000000; 0.000000; 0000; 0.000000; 0.000000; 0000;  0.000000;  0.000000;  0.000000; 0; 0;  0.000000; 0.000000; 0.000000; 0.000000;  0.000000;  0.000000;  0.000000; 0; -0.010261; -0.034259; -2.089596; -0.000033;  0.000011; -0.000005;  215; 265.961583; 0073; -586.000000; -1964.000000; -119736.000000; 0215; 0.000000; 0.000000; 0.000000 ; 4520; 0.000000; 0.000000; 0.000000; 0.000000; 0.000000; 0.000000; 0.000000; 0.000000; 0.000000; 0.000000; 0.000000; 0.000000; 0000; 0003; -0.495986; 0.867631; 0.034842; -0.868270; -0.496025; -0.008130; 0.010229; -0.034285; 0.999360; 0.000000; 0.000000; 0.000000; 0; 0.000000; 0.000000; 0.000000; 0.000000; 31; 18360; 4520; 263; 0; 2.449490; 297; -1; 88; 72; 0; 51; 24; 0; 85; 24; 1; 149; 28; 1; 164; 31; 0; 23; 54; 0; 51; 54; 0; 85; 54; 0; 147; 45; 0; 149; 54; 0; 23; 90; 0; 51; 90; 0; 85; 90; 0; 119; 90; 0; 149; 90; 0; 23; 119; 0; 51; 119; 0; 85; 119; 0; 119; 119; 0; 149; 119; 0; 0; 0; 0; 0; 0; 0; 0; 0; 0; 0; 0; 0; 0; 0; 0; 0; 0; 0; 0; 0; 0; 0; 0; 0; 0; 0; 0; 0; 0; 0; 0; 0; 0; 0; 0; 0; 0.000000; 0; 0; 0; 0; 0; 0; 0.000000; 0; 0; 0; 0; 0; 0; 0.000000; 0; 0; 0; 0; 0; 0; 0.000000; 0.000000; 0.000000; 0.000000; 0.000000; 0.000000; 0.000000; 0.000000; 0.000000; 0.000000; 0.000000; 0.000000; 0.000000; 0.000000; 0.000000; 0.000000; 0.000000; 0.000000; 0.000000; 0.000000; 0.000000; 0.000000; 0.000000; 0.000000; 0.000000; 0.000000; 0.000000; 4969; 0; 1334101893.172685
0; 2408185876;265.973943; 2112; 1984; 3048; 1682; 1684; 1669; 1640; 1648; 11789; 0000; 0000; 1695; 0001; 0792; 1734; 0000; 0000; 1306; 3569; 1464; 41.072945; 1529;  46.590401;  46.587330; -981.254395; -0.140491;  0.210976;  0.017720; -1.252672;  0.020443;  0.000000;  2715.000000; -2718.000000;  0000; 0000; 0000; 0000; 0000; 000000; 000000; 000000;  3.227897; -0.682448;  0.000000; 0000; 0000; 0000; 0000; 0000; 290717696; 000; 000; 000; 000; 255; 255; 255; 255; 000; 000;  0.000000;  0.000000; 000; 000; 000;  0.000000; 000; 000; 000;  0.000000; 0000; 0000; 0000; 0000; 0215; 0.000000; 0000; 0215; 0.000000; 0.000000; 0.000000; 0.000000; 0.000000; 0000; 0.000000; 0.000000; 0000;  0.000000;  0.000000;  0.000000; 0; 0;  0.000000; 0.000000; 0.000000; 0.000000;  0.000000;  0.000000;  0.000000; 0; -0.010261; -0.034259; -2.089596; -0.000033;  0.000011; -0.000005;  215; 265.961583; 0073; -585.000000; -1965.000000; -119742.000000; 0215; 0.000000; 0.000000; 0.000000 ; 4520; 0.000000; 0.000000; 0.000000; 0.000000; 0.000000; 0.000000; 0.000000; 0.000000; 0.000000; 0.000000; 0.000000; 0.000000; 0000; 0003; -0.496070; 0.867583; 0.034846; -0.868222; -0.496108; -0.008154; 0.010213; -0.034299; 0.999359; 0.000000; 0.000000; 0.000000; 0; 0.000000; 0.000000; 0.000000; 0.000000; 31; 18360; 4520; 263; 0; 2.828427; 297; -1; 88; 72; 0; 51; 24; 0; 85; 24; 1; 149; 28; 1; 164; 31; 0; 23; 54; 0; 51; 54; 0; 85; 54; 0; 147; 45; 0; 149; 54; 0; 23; 90; 0; 51; 90; 0; 85; 90; 0; 119; 90; 0; 149; 90; 0; 23; 119; 0; 51; 119; 0; 85; 119; 0; 119; 119; 0; 149; 119; 0; 0; 0; 0; 0; 0; 0; 0; 0; 0; 0; 0; 0; 0; 0; 0; 0; 0; 0; 0; 0; 0; 0; 0; 0; 0; 0; 0; 0; 0; 0; 0; 0; 0; 0; 0; 0; 0.000000; 0; 0; 0; 0; 0; 0; 0.000000; 0; 0; 0; 0; 0; 0; 0.000000; 0; 0; 0; 0; 0; 0; 0.000000; 0.000000; 0.000000; 0.000000; 0.000000; 0.000000; 0.000000; 0.000000; 0.000000; 0.000000; 0.000000; 0.000000; 0.000000; 0.000000; 0.000000; 0.000000; 0.000000; 0.000000; 0.000000; 0.000000; 0.000000; 0.000000; 0.000000; 0.000000; 0.000000; 0.000000; 0.000000; 4949; 0; 1334101893.177996
0; 2408185876;265.978943; 2112; 1984; 3048; 1683; 1684; 1668; 1642; 1650; 11789; 0000; 0000; 1695; 0001; 0000; 0000; 3758; 0000; 1468; 2502; 1324; 41.072716; 1529;  46.736576;  46.807636; -984.147949; -0.009432;  0.144370;  0.105848; -1.252666;  0.020440;  0.000000;  2715.000000; -2723.000000;  0000; 0000; 0000; 0000; 0000; 000000; 000000; 000000;  3.227897; -0.682448;  0.000000; 0000; 0000; 0000; 0000; 0000; 290717696; 000; 000; 000; 000; 255; 255; 255; 255; 000; 000;  0.000000;  0.000000; 000; 000; 000;  0.000000; 000; 000; 000;  0.000000; 0000; 0000; 0000; 0000; 0215; 0.000000; 0000; 0215; 0.000000; 0.000000; 0.000000; 0.000000; 0.000000; 0000; 0.000000; 0.000000; 0000;  0.000000;  0.000000;  0.000000; 0; 0;  0.000000; 0.000000; 0.000000; 0.000000;  0.000000;  0.000000;  0.000000; 0; -0.010261; -0.034259; -2.089596; -0.000047;  0.000045; -0.000009;  215; 265.961583; 0073; -584.000000; -1965.000000; -119747.000000; 0215; 0.000000; 0.000000; 0.000000 ; 4520; 0.000000; 0.000000; 0.000000; 0.000000; 0.000000; 0.000000; 0.000000; 0.000000; 0.000000; 0.000000; 0.000000; 0.000000; 0000; 0003; -0.496148; 0.867539; 0.034842; -0.868178; -0.496185; -0.008168; 0.010202; -0.034302; 0.999359; 0.000000; 0.000000; 0.000000; 0; 0.000000; 0.000000; 0.000000; 0.000000; 31; 18360; 4520; 263; 0; 2.828427; 296; -1; 88; 72; 0; 51; 24; 0; 85; 24; 1; 149; 28; 1; 164; 31; 0; 23; 54; 0; 51; 54; 0; 85; 54; 0; 147; 45; 0; 149; 54; 0; 23; 90; 0; 51; 90; 0; 85; 90; 0; 119; 90; 0; 149; 90; 0; 23; 119; 0; 51; 119; 0; 85; 119; 0; 119; 119; 0; 149; 119; 0; 0; 0; 0; 0; 0; 0; 0; 0; 0; 0; 0; 0; 0; 0; 0; 0; 0; 0; 0; 0; 0; 0; 0; 0; 0; 0; 0; 0; 0; 0; 0; 0; 0; 0; 0; 0; 0.000000; 0; 0; 0; 0; 0; 0; 0.000000; 0; 0; 0; 0; 0; 0; 0.000000; 0; 0; 0; 0; 0; 0; 0.000000; 0.000000; 0.000000; 0.000000; 0.000000; 0.000000; 0.000000; 0.000000; 0.000000; 0.000000; 0.000000; 0.000000; 0.000000; 0.000000; 0.000000; 0.000000; 0.000000; 0.000000; 0.000000; 0.000000; 0.000000; 0.000000; 0.000000; 0.000000; 0.000000; 0.000000; 0.000000; 4959; 0; 1334101893.180577
0; 2408185940;265.983969; 2108; 1984; 3048; 1682; 1684; 1669; 1638; 1651; 11789; 0000; 0000; 1695; 0001; 0000; 0000; 3758; 0000; 1632; 1415; 1234; 41.072487; 1528;  44.382713;  46.769073; -984.014893; -0.194400;  0.127658;  0.035986; -1.252660;  0.020451;  0.000000;  2579.000000; -2721.000000;  0000; 0000; 0000; 0000; 0000; 000000; 000000; 000000;  3.227897; -0.682448;  0.000000; 0000; 0000; 0000; 0000; 0000; 290717696; 000; 000; 000; 000; 255; 255; 255; 255; 000; 000;  0.000000;  0.000000; 000; 000; 000;  0.000000; 000; 000; 000;  0.000000; 0000; 0000; 0000; 0000; 0215; 0.000000; 0000; 0215; 0.000000; 0.000000; 0.000000; 0.000000; 0.000000; 0000; 0.000000; 0.000000; 0000;  0.000000;  0.000000;  0.000000; 0; 0;  0.000000; 0.000000; 0.000000; 0.000000;  0.000000;  0.000000;  0.000000; 0; -0.010213; -0.034308; -2.089893; -0.000047;  0.000045; -0.000009;  215; 265.978211; 0073; -584.000000; -1966.000000; -119752.000000; 0215; 0.000000; 0.000000; 0.000000 ; 4520; 0.000000; 0.000000; 0.000000; 0.000000; 0.000000; 0.000000; 0.000000; 0.000000; 0.000000; 0.000000; 0.000000; 0.000000; 0000; 0003; -0.496230; 0.867491; 0.034857; -0.868131; -0.496268; -0.008183; 0.010200; -0.034321; 0.999359; 0.000000; 0.000000; 0.000000; 0; 0.000000; 0.000000; 0.000000; 0.000000; 31; 18360; 4520; 269; 0; 2.828427; 296; -1; 88; 72; 0; 51; 24; 0; 85; 24; 1; 149; 28; 1; 164; 31; 0; 23; 54; 0; 51; 54; 0; 85; 54; 0; 147; 45; 0; 149; 54; 0; 23; 90; 0; 51; 90; 0; 85; 90; 0; 119; 90; 0; 149; 90; 0; 23; 119; 0; 51; 119; 0; 85; 119; 0; 119; 119; 0; 149; 119; 0; 0; 0; 0; 0; 0; 0; 0; 0; 0; 0; 0; 0; 0; 0; 0; 0; 0; 0; 0; 0; 0; 0; 0; 0; 0; 0; 0; 0; 0; 0; 0; 0; 0; 0; 0; 0; 0.000000; 0; 0; 0; 0; 0; 0; 0.000000; 0; 0; 0; 0; 0; 0; 0.000000; 0; 0; 0; 0; 0; 0; 0.000000; 0.000000; 0.000000; 0.000000; 0.000000; 0.000000; 0.000000; 0.000000; 0.000000; 0.000000; 0.000000; 0.000000; 0.000000; 0.000000; 0.000000; 0.000000; 0.000000; 0.000000; 0.000000; 0.000000; 0.000000; 0.000000; 0.000000; 0.000000; 0.000000; 0.000000; 0.000000; 4989; 0; 1334101893.186552
0; 2408185940;265.988957; 2112; 1988; 3044; 1683; 1684; 1669; 1642; 1650; 11789; 0000; 0000; 1694; 0001; 0000; 0000; 3758; 0000; 1795; 0968; 1172; 41.073830; 1528;  44.245167;  44.358929; -981.236084;  0.050746;  0.178025; -0.004655; -1.252666;  0.020462;  0.000000;  2579.000000; -2588.000000;  0000; 0000; 0000; 0000; 0000; 000000; 000000; 000000;  3.227897; -0.682448;  0.000000; 0000; 0000; 0000; 0000; 0000; 290717696; 000; 000; 000; 000; 255; 255; 255; 255; 000; 000;  0.000000;  0.000000; 000; 000; 000;  0.000000; 000; 000; 000;  0.000000; 0000; 0000; 0000; 0000; 0215; 0.000000; 0000; 0215; 0.000000; 0.000000; 0.000000; 0.000000; 0.000000; 0000; 0.000000; 0.000000; 0000;  0.000000;  0.000000;  0.000000; 0; 0;  0.000000; 0.000000; 0.000000; 0.000000;  0.000000;  0.000000;  0.000000; 0; -0.010213; -0.034308; -2.089893; -0.000047;  0.000045; -0.000009;  215; 265.978211; 0073; -584.000000; -1966.000000; -119758.000000; 0215; 0.000000; 0.000000; 0.000000 ; 4521; 0.000000; 0.000000; 0.000000; 0.000000; 0.000000; 0.000000; 0.000000; 0.000000; 0.000000; 0.000000; 0.000000; 0.000000; 0000; 0003; -0.496316; 0.867442; 0.034845; -0.868082; -0.496353; -0.008188; 0.010193; -0.034312; 0.999359; 0.000000; 0.000000; 0.000000; 0; 0.000000; 0.000000; 0.000000; 0.000000; 31; 18412; 4521; 269; 0; 1.000000; 295; -1; 88; 72; 0; 51; 24; 0; 85; 24; 1; 149; 28; 1; 164; 31; 0; 23; 54; 0; 51; 54; 0; 85; 54; 0; 147; 45; 0; 149; 54; 0; 23; 90; 0; 51; 90; 0; 85; 90; 0; 119; 90; 0; 149; 90; 0; 23; 119; 0; 51; 119; 0; 85; 119; 0; 119; 119; 0; 149; 119; 0; 0; 0; 0; 0; 0; 0; 0; 0; 0; 0; 0; 0; 0; 0; 0; 0; 0; 0; 0; 0; 0; 0; 0; 0; 0; 0; 0; 0; 0; 0; 0; 0; 0; 0; 0; 0; 0.000000; 0; 0; 0; 0; 0; 0; 0.000000; 0; 0; 0; 0; 0; 0; 0.000000; 0; 0; 0; 0; 0; 0; 0.000000; 0.000000; 0.000000; 0.000000; 0.000000; 0.000000; 0.000000; 0.000000; 0.000000; 0.000000; 0.000000; 0.000000; 0.000000; 0.000000; 0.000000; 0.000000; 0.000000; 0.000000; 0.000000; 0.000000; 0.000000; 0.000000; 0.000000; 0.000000; 0.000000; 0.000000; 0.000000; 4948; 0; 1334101893.190975
0; 2408185940;265.995193; 2112; 1988; 3044; 1682; 1684; 1669; 1642; 1649; 11789; 0000; 0000; 1695; 0001; 0000; 0000; 3758; 0000; 1957; 0489; 1112; 41.073601; 1529;  46.920818;  41.958294; -979.025635; -0.140116;  0.177061; -0.001611; -1.252686;  0.020459;  0.000000;  2741.000000; -2454.000000;  0000; 0000; 0000; 0000; 0000; 000000; 000000; 000000;  3.227897; -0.682448;  0.000000; 0000; 0000; 0000; 0000; 0000; 290717696; 000; 000; 000; 000; 255; 255; 255; 255; 000; 000;  0.000000;  0.000000; 000; 000; 000;  0.000000; 000; 000; 000;  0.000000; 0000; 0000; 0000; 0000; 0215; 0.000000; 0000; 0215; 0.000000; 0.000000; 0.000000; 0.000000; 0.000000; 0000; 0.000000; 0.000000; 0000;  0.000000;  0.000000;  0.000000; 0; 0;  0.000000; 0.000000; 0.000000; 0.000000;  0.000000;  0.000000;  0.000000; 0; -0.010213; -0.034308; -2.089893; -0.000021;  0.000048;  0.000011;  215; 265.978211; 0073; -583.000000; -1966.000000; -119763.000000; 0215; 0.000000; 0.000000; 0.000000 ; 4521; 0.000000; 0.000000; 0.000000; 0.000000; 0.000000; 0.000000; 0.000000; 0.000000; 0.000000; 0.000000; 0.000000; 0.000000; 0000; 0003; -0.496402; 0.867394; 0.034839; -0.868033; -0.496439; -0.008204; 0.010180; -0.034313; 0.999359; 0.000000; 0.000000; 0.000000; 0; 0.000000; 0.000000; 0.000000; 0.000000; 31; 18412; 4521; 269; 0; 1.000000; 295; -1; 88; 72; 0; 51; 24; 0; 85; 24; 1; 149; 28; 1; 164; 31; 0; 23; 54; 0; 51; 54; 0; 85; 54; 0; 147; 45; 0; 149; 54; 0; 23; 90; 0; 51; 90; 0; 85; 90; 0; 119; 90; 0; 149; 90; 0; 23; 119; 0; 51; 119; 0; 85; 119; 0; 119; 119; 0; 149; 119; 0; 0; 0; 0; 0; 0; 0; 0; 0; 0; 0; 0; 0; 0; 0; 0; 0; 0; 0; 0; 0; 0; 0; 0; 0; 0; 0; 0; 0; 0; 0; 0; 0; 0; 0; 0; 0; 0.000000; 0; 0; 0; 0; 0; 0; 0.000000; 0; 0; 0; 0; 0; 0; 0.000000; 0; 0; 0; 0; 0; 0; 0.000000; 0.000000; 0.000000; 0.000000; 0.000000; 0.000000; 0.000000; 0.000000; 0.000000; 0.000000; 0.000000; 0.000000; 0.000000; 0.000000; 0.000000; 0.000000; 0.000000; 0.000000; 0.000000; 0.000000; 0.000000; 0.000000; 0.000000; 0.000000; 0.000000; 0.000000; 0.000000; 6195; 0; 1334101893.199394
0; 2408185940;265.998967; 2108; 1988; 3048; 1682; 1684; 1668; 1641; 1650; 11789; 0000; 0000; 1695; 0001; 0000; 0000; 3758; 0000; 2121; 0239; 1050; 41.073372; 1529;  44.541897;  42.620148; -982.090088; -0.138167;  0.158610; -0.039631; -1.252702;  0.020468;  0.000000;  2594.000000; -2484.000000;  0000; 0000; 0000; 0000; 0000; 000000; 000000; 000000;  3.227897; -0.682448;  0.000000; 0000; 0000; 0000; 0000; 0000; 290717696; 000; 000; 000; 000; 255; 255; 255; 255; 000; 000;  0.000000;  0.000000; 000; 000; 000;  0.000000; 000; 000; 000;  0.000000; 0000; 0000; 0000; 0000; 0215; 0.000000; 0000; 0215; 0.000000; 0.000000; 0.000000; 0.000000; 0.000000; 0000; 0.000000; 0.000000; 0000;  0.000000;  0.000000;  0.000000; 0; 0;  0.000000; 0.000000; 0.000000; 0.000000;  0.000000;  0.000000;  0.000000; 0; -0.010193; -0.034321; -2.090176; -0.000021;  0.000048;  0.000011;  215; 265.994834; 0073; -582.000000; -1966.000000; -119769.000000; 0215; 0.000000; 0.000000; 0.000000 ; 4521; 0.000000; 0.000000; 0.000000; 0.000000; 0.000000; 0.000000; 0.000000; 0.000000; 0.000000; 0.000000; 0.000000; 0.000000; 0000; 0003; -0.496490; 0.867343; 0.034837; -0.867983; -0.496527; -0.008213; 0.010174; -0.034316; 0.999359; 0.000000; 0.000000; 0.000000; 0; 0.000000; 0.000000; 0.000000; 0.000000; 31; 18412; 4521; 269; 0; 1.000000; 294; -1; 88; 72; 0; 51; 24; 0; 85; 24; 1; 149; 28; 1; 164; 31; 0; 23; 54; 0; 51; 54; 0; 85; 54; 0; 147; 45; 0; 149; 54; 0; 23; 90; 0; 51; 90; 0; 85; 90; 0; 119; 90; 0; 149; 90; 0; 23; 119; 0; 51; 119; 0; 85; 119; 0; 119; 119; 0; 149; 119; 0; 0; 0; 0; 0; 0; 0; 0; 0; 0; 0; 0; 0; 0; 0; 0; 0; 0; 0; 0; 0; 0; 0; 0; 0; 0; 0; 0; 0; 0; 0; 0; 0; 0; 0; 0; 0; 0.000000; 0; 0; 0; 0; 0; 0; 0.000000; 0; 0; 0; 0; 0; 0; 0.000000; 0; 0; 0; 0; 0; 0; 0.000000; 0.000000; 0.000000; 0.000000; 0.000000; 0.000000; 0.000000; 0.000000; 0.000000; 0.000000; 0.000000; 0.000000; 0.000000; 0.000000; 0.000000; 0.000000; 0.000000; 0.000000; 0.000000; 0.000000; 0.000000; 0.000000; 0.000000; 0.000000; 0.000000; 0.000000; 0.000000; 3738; 0; 1334101893.202728
0; 2408185940;266.004367; 2108; 1988; 3048; 1682; 1684; 1669; 1642; 1649; 11789; 0000; 0000; 1695; 0001; 0000; 0000; 3758; 0000; 2283; 0093; 0989; 41.073143; 1528;  42.038879;  42.989738; -984.914062; -0.125309;  0.164584;  0.021626; -1.252717;  0.020492;  0.000000;  2441.000000; -2499.000000;  0000; 0000; 0000; 0000; 0000; 000000; 000000; 000000;  3.227897; -0.682448;  0.000000; 0000; 0000; 0000; 0000; 0000; 290717696; 000; 000; 000; 000; 255; 255; 255; 255; 000; 000;  0.000000;  0.000000; 000; 000; 000;  0.000000; 000; 000; 000;  0.000000; 0000; 0000; 0000; 0000; 0215; 0.000000; 0000; 0215; 0.000000; 0.000000; 0.000000; 0.000000; 0.000000; 0000; 0.000000; 0.000000; 0000;  0.000000;  0.000000;  0.000000; 0; 0;  0.000000; 0.000000; 0.000000; 0.000000;  0.000000;  0.000000;  0.000000; 0; -0.010193; -0.034321; -2.090176; -0.000021;  0.000048;  0.000011;  215; 265.994834; 0073; -583.000000; -1966.000000; -119775.000000; 0215; 0.000000; 0.000000; 0.000000 ; 4521; 0.000000; 0.000000; 0.000000; 0.000000; 0.000000; 0.000000; 0.000000; 0.000000; 0.000000; 0.000000; 0.000000; 0.000000; 0000; 0003; -0.496574; 0.867295; 0.034839; -0.867935; -0.496610; -0.008216; 0.010175; -0.034318; 0.999359; 0.000000; 0.000000; 0.000000; 0; 0.000000; 0.000000; 0.000000; 0.000000; 31; 18412; 4521; 273; 0; 1.000000; 293; -1; 88; 72; 0; 51; 24; 0; 85; 24; 1; 149; 28; 1; 164; 31; 0; 23; 54; 0; 51; 54; 0; 85; 54; 0; 147; 45; 0; 149; 54; 0; 23; 90; 0; 51; 90; 0; 85; 90; 0; 119; 90; 0; 149; 90; 0; 23; 119; 0; 51; 119; 0; 85; 119; 0; 119; 119; 0; 149; 119; 0; 0; 0; 0; 0; 0; 0; 0; 0; 0; 0; 0; 0; 0; 0; 0; 0; 0; 0; 0; 0; 0; 0; 0; 0; 0; 0; 0; 0; 0; 0; 0; 0; 0; 0; 0; 0; 0.000000; 0; 0; 0; 0; 0; 0; 0.000000; 0; 0; 0; 0; 0; 0; 0.000000; 0; 0; 0; 0; 0; 0; 0.000000; 0.000000; 0.000000; 0.000000; 0.000000; 0.000000; 0.000000; 0.000000; 0.000000; 0.000000; 0.000000; 0.000000; 0.000000; 0.000000; 0.000000; 0.000000; 0.000000; 0.000000; 0.000000; 0.000000; 0.000000; 0.000000; 0.000000; 0.000000; 0.000000; 0.000000; 0.000000; 5360; 0; 1334101893.224001
0; 2408185876;266.009110; 2112; 1988; 3044; 1682; 1684; 1668; 1640; 1650; 11789; 0000; 0000; 1694; 0001; 0000; 0000; 3758; 0000; 2447; 0034; 0928; 41.074486; 1528;  44.919189;  42.718487; -981.550537; -0.383232;  0.160991;  0.101273; -1.252732;  0.020499;  0.000000;  2617.000000; -2492.000000;  0000; 0000; 0000; 0000; 0000; 000000; 000000; 000000;  3.227897; -0.682448;  0.000000; 0000; 0000; 0000; 0000; 0000; 290717696; 000; 000; 000; 000; 255; 255; 255; 255; 000; 000;  0.000000;  0.000000; 000; 000; 000;  0.000000; 000; 000; 000;  0.000000; 0000; 0000; 0000; 0000; 0215; 0.000000; 0000; 0215; 0.000000; 0.000000; 0.000000; 0.000000; 0.000000; 0000; 0.000000; 0.000000; 0000;  0.000000;  0.000000;  0.000000; 0; 0;  0.000000; 0.000000; 0.000000; 0.000000;  0.000000;  0.000000;  0.000000; 0; -0.010193; -0.034321; -2.090176; -0.000021;  0.000048;  0.000011;  215; 265.994834; 0073; -582.000000; -1968.000000; -119780.000000; 0215; 0.000000; 0.000000; 0.000000 ; 4521; 0.000000; 0.000000; 0.000000; 0.000000; 0.000000; 0.000000; 0.000000; 0.000000; 0.000000; 0.000000; 0.000000; 0.000000; 0000; 0003; -0.496652; 0.867250; 0.034856; -0.867890; -0.496688; -0.008238; 0.010168; -0.034342; 0.999358; 0.000000; 0.000000; 0.000000; 0; 0.000000; 0.000000; 0.000000; 0.000000; 31; 18412; 4521; 273; 0; 1.000000; 292; -1; 88; 72; 0; 51; 24; 0; 85; 24; 1; 149; 28; 1; 164; 31; 0; 23; 54; 0; 51; 54; 0; 85; 54; 0; 147; 45; 0; 149; 54; 0; 23; 90; 0; 51; 90; 0; 85; 90; 0; 119; 90; 0; 149; 90; 0; 23; 119; 0; 51; 119; 0; 85; 119; 0; 119; 119; 0; 149; 119; 0; 0; 0; 0; 0; 0; 0; 0; 0; 0; 0; 0; 0; 0; 0; 0; 0; 0; 0; 0; 0; 0; 0; 0; 0; 0; 0; 0; 0; 0; 0; 0; 0; 0; 0; 0; 0; 0.000000; 0; 0; 0; 0; 0; 0; 0.000000; 0; 0; 0; 0; 0; 0; 0.000000; 0; 0; 0; 0; 0; 0; 0.000000; 0.000000; 0.000000; 0.000000; 0.000000; 0.000000; 0.000000; 0.000000; 0.000000; 0.000000; 0.000000; 0.000000; 0.000000; 0.000000; 0.000000; 0.000000; 0.000000; 0.000000; 0.000000; 0.000000; 0.000000; 0.000000; 0.000000; 0.000000; 0.000000; 0.000000; 0.000000; 4705; 0; 1334101893.224123
0; 2408185876;266.013983; 2108; 1988; 3044; 1682; 1684; 1668; 1643; 1649; 11789; 0000; 0000; 1694; 0001; 0792; 1738; 0000; 0000; 2609; 0000; 0867; 41.074257; 1529;  44.974762;  42.690510; -978.951416; -0.216168;  0.161715;  0.123280; -1.252748;  0.020507;  0.000000;  2627.000000; -2496.000000;  0000; 0000; 0000; 0000; 0000; 000000; 000000; 000000;  3.227897; -0.682448;  0.000000; 0000; 0000; 0000; 0000; 0000; 290717696; 000; 000; 000; 000; 255; 255; 255; 255; 000; 000;  0.000000;  0.000000; 000; 000; 000;  0.000000; 000; 000; 000;  0.000000; 0000; 0000; 0000; 0000; 0215; 0.000000; 0000; 0215; 0.000000; 0.000000; 0.000000; 0.000000; 0.000000; 0000; 0.000000; 0.000000; 0000;  0.000000;  0.000000;  0.000000; 0; 0;  0.000000; 0.000000; 0.000000; 0.000000;  0.000000;  0.000000;  0.000000; 0; -0.010193; -0.034321; -2.090176; -0.000039;  0.000048; -0.000002;  215; 265.994834; 0073; -582.000000; -1968.000000; -119785.000000; 0215; 0.000000; 0.000000; 0.000000 ; 4521; 0.000000; 0.000000; 0.000000; 0.000000; 0.000000; 0.000000; 0.000000; 0.000000; 0.000000; 0.000000; 0.000000; 0.000000; 0000; 0003; -0.496728; 0.867206; 0.034860; -0.867847; -0.496764; -0.008252; 0.010161; -0.034352; 0.999358; 0.000000; 0.000000; 0.000000; 0; 0.000000; 0.000000; 0.000000; 0.000000; 31; 18412; 4521; 273; 0; 1.732051; 291; -1; 88; 72; 0; 51; 24; 0; 85; 24; 1; 149; 28; 1; 164; 31; 0; 23; 54; 0; 51; 54; 0; 85; 54; 0; 147; 45; 0; 149; 54; 0; 23; 90; 0; 51; 90; 0; 85; 90; 0; 119; 90; 0; 149; 90; 0; 23; 119; 0; 51; 119; 0; 85; 119; 0; 119; 119; 0; 149; 119; 0; 0; 0; 0; 0; 0; 0; 0; 0; 0; 0; 0; 0; 0; 0; 0; 0; 0; 0; 0; 0; 0; 0; 0; 0; 0; 0; 0; 0; 0; 0; 0; 0; 0; 0; 0; 0; 0.000000; 0; 0; 0; 0; 0; 0; 0.000000; 0; 0; 0; 0; 0; 0; 0.000000; 0; 0; 0; 0; 0; 0; 0.000000; 0.000000; 0.000000; 0.000000; 0.000000; 0.000000; 0.000000; 0.000000; 0.000000; 0.000000; 0.000000; 0.000000; 0.000000; 0.000000; 0.000000; 0.000000; 0.000000; 0.000000; 0.000000; 0.000000; 0.000000; 0.000000; 0.000000; 0.000000; 0.000000; 0.000000; 0.000000; 4839; 0; 1334101893.224259
0; 2408185876;266.019005; 2108; 1988; 3044; 1682; 1684; 1669; 1644; 1649; 11789; 0000; 0000; 1695; 0001; 0000; 0000; 3758; 0000; 2773; 0000; 0806; 41.074028; 1529;  42.123615;  42.678040; -979.877930; -0.262877;  0.167423;  0.058971; -1.252764;  0.020530;  0.000000;  2459.000000; -2493.000000;  0000; 0000; 0000; 0000; 0000; 000000; 000000; 000000;  3.227897; -0.682448;  0.000000; 0000; 0000; 0000; 0000; 0000; 290717696; 000; 000; 000; 000; 255; 255; 255; 255; 000; 000;  0.000000;  0.000000; 000; 000; 000;  0.000000; 000; 000; 000;  0.000000; 0000; 0000; 0000; 0000; 0215; 0.000000; 0000; 0215; 0.000000; 0.000000; 0.000000; 0.000000; 0.000000; 0000; 0.000000; 0.000000; 0000;  0.000000;  0.000000;  0.000000; 0; 0;  0.000000; 0.000000; 0.000000; 0.000000;  0.000000;  0.000000;  0.000000; 0; -0.010169; -0.034351; -2.090563; -0.000039;  0.000048; -0.000002;  215; 266.011437; 0073; -582.000000; -1969.000000; -119790.000000; 0215; 0.000000; 0.000000; 0.000000 ; 4521; 0.000000; 0.000000; 0.000000; 0.000000; 0.000000; 0.000000; 0.000000; 0.000000; 0.000000; 0.000000; 0.000000; 0.000000; 0000; 0003; -0.496809; 0.867159; 0.034872; -0.867800; -0.496844; -0.008261; 0.010162; -0.034366; 0.999358; 0.000000; 0.000000; 0.000000; 0; 0.000000; 0.000000; 0.000000; 0.000000; 31; 18412; 4521; 273; 0; 1.732051; 291; -1; 88; 72; 0; 51; 24; 0; 85; 24; 1; 149; 28; 1; 164; 31; 0; 23; 54; 0; 51; 54; 0; 85; 54; 0; 147; 45; 0; 149; 54; 0; 23; 90; 0; 51; 90; 0; 85; 90; 0; 119; 90; 0; 149; 90; 0; 23; 119; 0; 51; 119; 0; 85; 119; 0; 119; 119; 0; 149; 119; 0; 0; 0; 0; 0; 0; 0; 0; 0; 0; 0; 0; 0; 0; 0; 0; 0; 0; 0; 0; 0; 0; 0; 0; 0; 0; 0; 0; 0; 0; 0; 0; 0; 0; 0; 0; 0; 0.000000; 0; 0; 0; 0; 0; 0; 0.000000; 0; 0; 0; 0; 0; 0; 0.000000; 0; 0; 0; 0; 0; 0; 0.000000; 0.000000; 0.000000; 0.000000; 0.000000; 0.000000; 0.000000; 0.000000; 0.000000; 0.000000; 0.000000; 0.000000; 0.000000; 0.000000; 0.000000; 0.000000; 0.000000; 0.000000; 0.000000; 0.000000; 0.000000; 0.000000; 0.000000; 0.000000; 0.000000; 0.000000; 0.000000; 4984; 0; 1334101893.224353
0; 2408185876;266.024000; 2112; 1988; 3044; 1682; 1684; 1668; 1639; 1651; 11789; 0000; 0000; 1695; 0001; 0000; 0000; 3758; 0000; 2935; 0000; 0745; 41.073799; 1529;  44.735683;  42.611279; -979.998779; -0.242420;  0.164127;  0.157777; -1.252780;  0.020539;  0.000000;  2611.000000; -2489.000000;  0000; 0000; 0000; 0000; 0000; 000000; 000000; 000000;  3.227897; -0.682448;  0.000000; 0000; 0000; 0000; 0000; 0000; 290717696; 000; 000; 000; 000; 255; 255; 255; 255; 000; 000;  0.000000;  0.000000; 000; 000; 000;  0.000000; 000; 000; 000;  0.000000; 0000; 0000; 0000; 0000; 0215; 0.000000; 0000; 0215; 0.000000; 0.000000; 0.000000; 0.000000; 0.000000; 0000; 0.000000; 0.000000; 0000;  0.000000;  0.000000;  0.000000; 0; 0;  0.000000; 0.000000; 0.000000; 0.000000;  0.000000;  0.000000;  0.000000; 0; -0.010169; -0.034351; -2.090563; -0.000039;  0.000048; -0.000002;  215; 266.011437; 0073; -581.000000; -1970.000000; -119795.000000; 0215; 0.000000; 0.000000; 0.000000 ; 4521; 0.000000; 0.000000; 0.000000; 0.000000; 0.000000; 0.000000; 0.000000; 0.000000; 0.000000; 0.000000; 0.000000; 0.000000; 0000; 0003; -0.496883; 0.867117; 0.034878; -0.867758; -0.496917; -0.008276; 0.010155; -0.034378; 0.999357; 0.000000; 0.000000; 0.000000; 0; 0.000000; 0.000000; 0.000000; 0.000000; 31; 18412; 4521; 273; 0; 1.732051; 290; -1; 88; 72; 0; 51; 24; 0; 85; 24; 1; 149; 28; 1; 164; 31; 0; 23; 54; 0; 51; 54; 0; 85; 54; 0; 147; 45; 0; 149; 54; 0; 23; 90; 0; 51; 90; 0; 85; 90; 0; 119; 90; 0; 149; 90; 0; 23; 119; 0; 51; 119; 0; 85; 119; 0; 119; 119; 0; 149; 119; 0; 0; 0; 0; 0; 0; 0; 0; 0; 0; 0; 0; 0; 0; 0; 0; 0; 0; 0; 0; 0; 0; 0; 0; 0; 0; 0; 0; 0; 0; 0; 0; 0; 0; 0; 0; 0; 0.000000; 0; 0; 0; 0; 0; 0; 0.000000; 0; 0; 0; 0; 0; 0; 0.000000; 0; 0; 0; 0; 0; 0; 0.000000; 0.000000; 0.000000; 0.000000; 0.000000; 0.000000; 0.000000; 0.000000; 0.000000; 0.000000; 0.000000; 0.000000; 0.000000; 0.000000; 0.000000; 0.000000; 0.000000; 0.000000; 0.000000; 0.000000; 0.000000; 0.000000; 0.000000; 0.000000; 0.000000; 0.000000; 0.000000; 4956; 0; 1334101893.226414
0; 2408185876;266.030212; 2108; 1988; 3044; 1682; 1684; 1669; 1641; 1651; 11789; 0000; 0000; 1695; 0001; 0000; 0000; 3758; 0000; 3099; 0000; 0683; 41.075142; 1528;  45.154293;  42.517742; -979.805420; -0.218069;  0.162105; -0.034320; -1.252797;  0.020545;  0.000000;  2636.000000; -2484.000000;  0000; 0000; 0000; 0000; 0000; 000000; 000000; 000000;  3.227897; -0.682448;  0.000000; 0000; 0000; 0000; 0000; 0000; 290717696; 000; 000; 000; 000; 255; 255; 255; 255; 000; 000;  0.000000;  0.000000; 000; 000; 000;  0.000000; 000; 000; 000;  0.000000; 0000; 0000; 0000; 0000; 0215; 0.000000; 0000; 0215; 0.000000; 0.000000; 0.000000; 0.000000; 0.000000; 0000; 0.000000; 0.000000; 0000;  0.000000;  0.000000;  0.000000; 0; 0;  0.000000; 0.000000; 0.000000; 0.000000;  0.000000;  0.000000;  0.000000; 0; -0.010169; -0.034351; -2.090563; -0.000084;  0.000047;  0.000027;  215; 266.011437; 0073; -581.000000; -1970.000000; -119801.000000; 0215; 0.000000; 0.000000; 0.000000 ; 4521; 0.000000; 0.000000; 0.000000; 0.000000; 0.000000; 0.000000; 0.000000; 0.000000; 0.000000; 0.000000; 0.000000; 0.000000; 0000; 0003; -0.496971; 0.867066; 0.034882; -0.867708; -0.497005; -0.008291; 0.010148; -0.034387; 0.999357; 0.000000; 0.000000; 0.000000; 0; 0.000000; 0.000000; 0.000000; 0.000000; 31; 18412; 4521; 275; 0; 1.732051; 290; -1; 88; 72; 0; 51; 24; 0; 85; 24; 1; 149; 28; 1; 164; 31; 0; 23; 54; 0; 51; 54; 0; 85; 54; 0; 147; 45; 0; 149; 54; 0; 23; 90; 0; 51; 90; 0; 85; 90; 0; 119; 90; 0; 149; 90; 0; 23; 119; 0; 51; 119; 0; 85; 119; 0; 119; 119; 0; 149; 119; 0; 0; 0; 0; 0; 0; 0; 0; 0; 0; 0; 0; 0; 0; 0; 0; 0; 0; 0; 0; 0; 0; 0; 0; 0; 0; 0; 0; 0; 0; 0; 0; 0; 0; 0; 0; 0; 0.000000; 0; 0; 0; 0; 0; 0; 0.000000; 0; 0; 0; 0; 0; 0; 0.000000; 0; 0; 0; 0; 0; 0; 0.000000; 0.000000; 0.000000; 0.000000; 0.000000; 0.000000; 0.000000; 0.000000; 0.000000; 0.000000; 0.000000; 0.000000; 0.000000; 0.000000; 0.000000; 0.000000; 0.000000; 0.000000; 0.000000; 0.000000; 0.000000; 0.000000; 0.000000; 0.000000; 0.000000; 0.000000; 0.000000; 6170; 0; 1334101893.232965
0; 2408185876;266.034019; 2108; 1988; 3044; 1682; 1684; 1669; 1642; 1650; 11789; 0000; 0000; 1695; 0001; 0000; 0000; 3758; 0000; 3261; 0000; 0623; 41.074905; 1529;  42.180325;  42.492302; -980.010437; -0.254745;  0.163981;  0.019114; -1.252813;  0.020568;  0.000000;  2462.000000; -2482.000000;  0000; 0000; 0000; 0000; 0000; 000000; 000000; 000000;  3.227897; -0.682448;  0.000000; 0000; 0000; 0000; 0000; 0000; 290717696; 000; 000; 000; 000; 255; 255; 255; 255; 000; 000;  0.000000;  0.000000; 000; 000; 000;  0.000000; 000; 000; 000;  0.000000; 0000; 0000; 0000; 0000; 0215; 0.000000; 0000; 0215; 0.000000; 0.000000; 0.000000; 0.000000; 0.000000; 0000; 0.000000; 0.000000; 0000;  0.000000;  0.000000;  0.000000; 0; 0;  0.000000; 0.000000; 0.000000; 0.000000;  0.000000;  0.000000;  0.000000; 0; -0.010155; -0.034386; -2.090829; -0.000084;  0.000047;  0.000027;  215; 266.028079; 0073; -581.000000; -1971.000000; -119807.000000; 0215; 0.000000; 0.000000; 0.000000 ; 4521; 0.000000; 0.000000; 0.000000; 0.000000; 0.000000; 0.000000; 0.000000; 0.000000; 0.000000; 0.000000; 0.000000; 0.000000; 0000; 0003; -0.497055; 0.867018; 0.034892; -0.867660; -0.497089; -0.008299; 0.010149; -0.034399; 0.999357; 0.000000; 0.000000; 0.000000; 0; 0.000000; 0.000000; 0.000000; 0.000000; 31; 18412; 4521; 275; 0; 1.732051; 289; -1; 88; 72; 0; 51; 24; 0; 85; 24; 1; 149; 28; 1; 164; 31; 0; 23; 54; 0; 51; 54; 0; 85; 54; 0; 147; 45; 0; 149; 54; 0; 23; 90; 0; 51; 90; 0; 85; 90; 0; 119; 90; 0; 149; 90; 0; 23; 119; 0; 51; 119; 0; 85; 119; 0; 119; 119; 0; 149; 119; 0; 0; 0; 0; 0; 0; 0; 0; 0; 0; 0; 0; 0; 0; 0; 0; 0; 0; 0; 0; 0; 0; 0; 0; 0; 0; 0; 0; 0; 0; 0; 0; 0; 0; 0; 0; 0; 0.000000; 0; 0; 0; 0; 0; 0; 0.000000; 0; 0; 0; 0; 0; 0; 0.000000; 0; 0; 0; 0; 0; 0; 0.000000; 0.000000; 0.000000; 0.000000; 0.000000; 0.000000; 0.000000; 0.000000; 0.000000; 0.000000; 0.000000; 0.000000; 0.000000; 0.000000; 0.000000; 0.000000; 0.000000; 0.000000; 0.000000; 0.000000; 0.000000; 0.000000; 0.000000; 0.000000; 0.000000; 0.000000; 0.000000; 3766; 0; 1334101893.236302
0; 2408185876;266.038992; 2108; 1988; 3044; 1683; 1684; 1668; 1641; 1651; 11789; 0000; 0000; 1695; 0001; 0000; 0000; 3758; 0000; 3425; 0000; 0561; 41.074669; 1530;  42.482109;  42.469398; -980.000183; -0.119187;  0.163667;  0.066798; -1.252831;  0.020589;  0.000000;  2479.000000; -2481.000000;  0000; 0000; 0000; 0000; 0000; 000000; 000000; 000000;  3.227897; -0.682448;  0.000000; 0000; 0000; 0000; 0000; 0000; 290717696; 000; 000; 000; 000; 255; 255; 255; 255; 000; 000;  0.000000;  0.000000; 000; 000; 000;  0.000000; 000; 000; 000;  0.000000; 0000; 0000; 0000; 0000; 0215; 0.000000; 0000; 0215; 0.000000; 0.000000; 0.000000; 0.000000; 0.000000; 0000; 0.000000; 0.000000; 0000;  0.000000;  0.000000;  0.000000; 0; 0;  0.000000; 0.000000; 0.000000; 0.000000;  0.000000;  0.000000;  0.000000; 0; -0.010155; -0.034386; -2.090829; -0.000084;  0.000047;  0.000027;  215; 266.028079; 0073; -581.000000; -1971.000000; -119812.000000; 0215; 0.000000; 0.000000; 0.000000 ; 4522; 0.000000; 0.000000; 0.000000; 0.000000; 0.000000; 0.000000; 0.000000; 0.000000; 0.000000; 0.000000; 0.000000; 0.000000; 0000; 0003; -0.497135; 0.866971; 0.034891; -0.867614; -0.497169; -0.008303; 0.010149; -0.034400; 0.999357; 0.000000; 0.000000; 0.000000; 0; 0.000000; 0.000000; 0.000000; 0.000000; 31; 18348; 4522; 275; 0; 1.732051; 288; -1; 88; 72; 0; 51; 24; 0; 85; 24; 1; 149; 28; 1; 164; 31; 0; 23; 54; 0; 51; 54; 0; 85; 54; 0; 147; 45; 0; 149; 54; 0; 23; 90; 0; 51; 90; 0; 85; 90; 0; 119; 90; 0; 149; 90; 0; 23; 119; 0; 51; 119; 0; 85; 119; 0; 119; 119; 0; 149; 119; 0; 0; 0; 0; 0; 0; 0; 0; 0; 0; 0; 0; 0; 0; 0; 0; 0; 0; 0; 0; 0; 0; 0; 0; 0; 0; 0; 0; 0; 0; 0; 0; 0; 0; 0; 0; 0; 0.000000; 0; 0; 0; 0; 0; 0; 0.000000; 0; 0; 0; 0; 0; 0; 0.000000; 0; 0; 0; 0; 0; 0; 0.000000; 0.000000; 0.000000; 0.000000; 0.000000; 0.000000; 0.000000; 0.000000; 0.000000; 0.000000; 0.000000; 0.000000; 0.000000; 0.000000; 0.000000; 0.000000; 0.000000; 0.000000; 0.000000; 0.000000; 0.000000; 0.000000; 0.000000; 0.000000; 0.000000; 0.000000; 0.000000; 4933; 0; 1334101893.241476
0; 2408185876;266.043977; 2108; 1988; 3044; 1682; 1684; 1668; 1641; 1649; 11789; 0000; 0000; 1695; 0001; 0000; 0000; 3758; 0000; 3587; 0000; 0500; 41.076004; 1529;  42.914295;  42.474518; -979.986755; -0.144629;  0.163623;  0.012423; -1.252848;  0.020608;  0.000000;  2505.000000; -2481.000000;  0000; 0000; 0000; 0000; 0000; 000000; 000000; 000000;  3.227897; -0.682448;  0.000000; 0000; 0000; 0000; 0000; 0000; 290717696; 000; 000; 000; 000; 255; 255; 255; 255; 000; 000;  0.000000;  0.000000; 000; 000; 000;  0.000000; 000; 000; 000;  0.000000; 0000; 0000; 0000; 0000; 0215; 0.000000; 0000; 0215; 0.000000; 0.000000; 0.000000; 0.000000; 0.000000; 0000; 0.000000; 0.000000; 0000;  0.000000;  0.000000;  0.000000; 0; 0;  0.000000; 0.000000; 0.000000; 0.000000;  0.000000;  0.000000;  0.000000; 0; -0.010155; -0.034386; -2.090829; -0.000084;  0.000047;  0.000027;  215; 266.028079; 0073; -581.000000; -1971.000000; -119817.000000; 0215; 0.000000; 0.000000; 0.000000 ; 4522; 0.000000; 0.000000; 0.000000; 0.000000; 0.000000; 0.000000; 0.000000; 0.000000; 0.000000; 0.000000; 0.000000; 0.000000; 0000; 0003; -0.497220; 0.866923; 0.034892; -0.867566; -0.497254; -0.008308; 0.010148; -0.034403; 0.999357; 0.000000; 0.000000; 0.000000; 0; 0.000000; 0.000000; 0.000000; 0.000000; 31; 18348; 4522; 275; 0; 1.732051; 288; -1; 88; 72; 0; 51; 24; 0; 85; 24; 1; 149; 28; 1; 164; 31; 0; 23; 54; 0; 51; 54; 0; 85; 54; 0; 147; 45; 0; 149; 54; 0; 23; 90; 0; 51; 90; 0; 85; 90; 0; 119; 90; 0; 149; 90; 0; 23; 119; 0; 51; 119; 0; 85; 119; 0; 119; 119; 0; 149; 119; 0; 0; 0; 0; 0; 0; 0; 0; 0; 0; 0; 0; 0; 0; 0; 0; 0; 0; 0; 0; 0; 0; 0; 0; 0; 0; 0; 0; 0; 0; 0; 0; 0; 0; 0; 0; 0; 0.000000; 0; 0; 0; 0; 0; 0; 0.000000; 0; 0; 0; 0; 0; 0; 0.000000; 0; 0; 0; 0; 0; 0; 0.000000; 0.000000; 0.000000; 0.000000; 0.000000; 0.000000; 0.000000; 0.000000; 0.000000; 0.000000; 0.000000; 0.000000; 0.000000; 0.000000; 0.000000; 0.000000; 0.000000; 0.000000; 0.000000; 0.000000; 0.000000; 0.000000; 0.000000; 0.000000; 0.000000; 0.000000; 0.000000; 4945; 0; 1334101893.245737
0; 2408185876;266.049041; 2108; 1988; 3044; 1682; 1684; 1668; 1640; 1651; 11789; 0000; 0000; 1695; 0001; 0000; 0000; 3758; 0000; 3751; 0000; 0439; 41.077339; 1528;  42.734077;  42.523800; -979.979187; -0.090027;  0.164042;  0.199818; -1.252865;  0.020627;  0.000000;  2494.000000; -2484.000000;  0000; 0000; 0000; 0000; 0000; 000000; 000000; 000000;  3.227897; -0.682448;  0.000000; 0000; 0000; 0000; 0000; 0000; 290717696; 000; 000; 000; 000; 255; 255; 255; 255; 000; 000;  0.000000;  0.000000; 000; 000; 000;  0.000000; 000; 000; 000;  0.000000; 0000; 0000; 0000; 0000; 0215; 0.000000; 0000; 0215; 0.000000; 0.000000; 0.000000; 0.000000; 0.000000; 0000; 0.000000; 0.000000; 0000;  0.000000;  0.000000;  0.000000; 0; 0;  0.000000; 0.000000; 0.000000; 0.000000;  0.000000;  0.000000;  0.000000; 0; -0.010148; -0.034411; -2.091217; -0.000061;  0.000048;  0.000015;  215; 266.044794; 0073; -581.000000; -1971.000000; -119822.000000; 0215; 0.000000; 0.000000; 0.000000 ; 4522; 0.000000; 0.000000; 0.000000; 0.000000; 0.000000; 0.000000; 0.000000; 0.000000; 0.000000; 0.000000; 0.000000; 0.000000; 0000; 0003; -0.497290; 0.866883; 0.034890; -0.867525; -0.497324; -0.008311; 0.010146; -0.034401; 0.999357; 0.000000; 0.000000; 0.000000; 0; 0.000000; 0.000000; 0.000000; 0.000000; 31; 18348; 4522; 277; 0; 1.732051; 287; -1; 88; 72; 0; 51; 24; 0; 85; 24; 1; 149; 28; 1; 164; 31; 0; 23; 54; 0; 51; 54; 0; 85; 54; 0; 147; 45; 0; 149; 54; 0; 23; 90; 0; 51; 90; 0; 85; 90; 0; 119; 90; 0; 149; 90; 0; 23; 119; 0; 51; 119; 0; 85; 119; 0; 119; 119; 0; 149; 119; 0; 0; 0; 0; 0; 0; 0; 0; 0; 0; 0; 0; 0; 0; 0; 0; 0; 0; 0; 0; 0; 0; 0; 0; 0; 0; 0; 0; 0; 0; 0; 0; 0; 0; 0; 0; 0; 0.000000; 0; 0; 0; 0; 0; 0; 0.000000; 0; 0; 0; 0; 0; 0; 0.000000; 0; 0; 0; 0; 0; 0; 0.000000; 0.000000; 0.000000; 0.000000; 0.000000; 0.000000; 0.000000; 0.000000; 0.000000; 0.000000; 0.000000; 0.000000; 0.000000; 0.000000; 0.000000; 0.000000; 0.000000; 0.000000; 0.000000; 0.000000; 0.000000; 0.000000; 0.000000; 0.000000; 0.000000; 0.000000; 0.000000; 5026; 0; 1334101893.250892
0; 2408185876;266.053994; 2108; 1988; 3044; 1682; 1684; 1669; 1640; 1650; 11789; 0000; 0000; 1695; 0001; 0792; 1734; 0000; 0000; 3913; 0000; 0378; 41.075531; 1529;  42.756927;  42.598793; -979.984070; -0.172231;  0.163449;  0.110021; -1.252881;  0.020647;  0.000000;  2495.000000; -2489.000000;  0000; 0000; 0000; 0000; 0000; 000000; 000000; 000000;  3.227897; -0.682448;  0.000000; 0000; 0000; 0000; 0000; 0000; 290717696; 000; 000; 000; 000; 255; 255; 255; 255; 000; 000;  0.000000;  0.000000; 000; 000; 000;  0.000000; 000; 000; 000;  0.000000; 0000; 0000; 0000; 0000; 0215; 0.000000; 0000; 0215; 0.000000; 0.000000; 0.000000; 0.000000; 0.000000; 0000; 0.000000; 0.000000; 0000;  0.000000;  0.000000;  0.000000; 0; 0;  0.000000; 0.000000; 0.000000; 0.000000;  0.000000;  0.000000;  0.000000; 0; -0.010148; -0.034411; -2.091217; -0.000061;  0.000048;  0.000015;  215; 266.044794; 0073; -581.000000; -1971.000000; -119827.000000; 0215; 0.000000; 0.000000; 0.000000 ; 4522; 0.000000; 0.000000; 0.000000; 0.000000; 0.000000; 0.000000; 0.000000; 0.000000; 0.000000; 0.000000; 0.000000; 0.000000; 0000; 0003; -0.497367; 0.866838; 0.034893; -0.867481; -0.497401; -0.008318; 0.010145; -0.034406; 0.999356; 0.000000; 0.000000; 0.000000; 0; 0.000000; 0.000000; 0.000000; 0.000000; 31; 18348; 4522; 277; 0; 1.732051; 287; -1; 88; 72; 0; 51; 24; 0; 85; 24; 1; 149; 28; 1; 164; 31; 0; 23; 54; 0; 51; 54; 0; 85; 54; 0; 147; 45; 0; 149; 54; 0; 23; 90; 0; 51; 90; 0; 85; 90; 0; 119; 90; 0; 149; 90; 0; 23; 119; 0; 51; 119; 0; 85; 119; 0; 119; 119; 0; 149; 119; 0; 0; 0; 0; 0; 0; 0; 0; 0; 0; 0; 0; 0; 0; 0; 0; 0; 0; 0; 0; 0; 0; 0; 0; 0; 0; 0; 0; 0; 0; 0; 0; 0; 0; 0; 0; 0; 0.000000; 0; 0; 0; 0; 0; 0; 0.000000; 0; 0; 0; 0; 0; 0; 0.000000; 0; 0; 0; 0; 0; 0; 0.000000; 0.000000; 0.000000; 0.000000; 0.000000; 0.000000; 0.000000; 0.000000; 0.000000; 0.000000; 0.000000; 0.000000; 0.000000; 0.000000; 0.000000; 0.000000; 0.000000; 0.000000; 0.000000; 0.000000; 0.000000; 0.000000; 0.000000; 0.000000; 0.000000; 0.000000; 0.000000; 4912; 0; 1334101893.255703
0; 2408185876;266.058981; 2108; 1984; 3044; 1683; 1685; 1669; 1642; 1650; 11789; 0000; 0000; 1695; 0001; 0000; 0000; 3758; 0000; 4077; 0000; 0317; 41.075294; 1529;  42.678005;  45.031799; -979.896423; -0.175487;  0.019889;  0.031439; -1.252884;  0.020667;  0.000000;  2491.000000; -2631.000000;  0000; 0000; 0000; 0000; 0000; 000000; 000000; 000000;  3.227897; -0.682448;  0.000000; 0000; 0000; 0000; 0000; 0000; 290717696; 000; 000; 000; 000; 255; 255; 255; 255; 000; 000;  0.000000;  0.000000; 000; 000; 000;  0.000000; 000; 000; 000;  0.000000; 0000; 0000; 0000; 0000; 0215; 0.000000; 0000; 0215; 0.000000; 0.000000; 0.000000; 0.000000; 0.000000; 0000; 0.000000; 0.000000; 0000;  0.000000;  0.000000;  0.000000; 0; 0;  0.000000; 0.000000; 0.000000; 0.000000;  0.000000;  0.000000;  0.000000; 0; -0.010148; -0.034411; -2.091217; -0.000061;  0.000048;  0.000015;  215; 266.044794; 0073; -581.000000; -1972.000000; -119833.000000; 0215; 0.000000; 0.000000; 0.000000 ; 4522; 0.000000; 0.000000; 0.000000; 0.000000; 0.000000; 0.000000; 0.000000; 0.000000; 0.000000; 0.000000; 0.000000; 0.000000; 0000; 0003; -0.497449; 0.866790; 0.034909; -0.867434; -0.497484; -0.008317; 0.010157; -0.034419; 0.999356; 0.000000; 0.000000; 0.000000; 0; 0.000000; 0.000000; 0.000000; 0.000000; 31; 18348; 4522; 277; 0; 1.732051; 286; -1; 88; 72; 0; 51; 24; 0; 85; 24; 1; 149; 28; 1; 164; 31; 0; 23; 54; 0; 51; 54; 0; 85; 54; 0; 147; 45; 0; 149; 54; 0; 23; 90; 0; 51; 90; 0; 85; 90; 0; 119; 90; 0; 149; 90; 0; 23; 119; 0; 51; 119; 0; 85; 119; 0; 119; 119; 0; 149; 119; 0; 0; 0; 0; 0; 0; 0; 0; 0; 0; 0; 0; 0; 0; 0; 0; 0; 0; 0; 0; 0; 0; 0; 0; 0; 0; 0; 0; 0; 0; 0; 0; 0; 0; 0; 0; 0; 0.000000; 0; 0; 0; 0; 0; 0; 0.000000; 0; 0; 0; 0; 0; 0; 0.000000; 0; 0; 0; 0; 0; 0; 0.000000; 0.000000; 0.000000; 0.000000; 0.000000; 0.000000; 0.000000; 0.000000; 0.000000; 0.000000; 0.000000; 0.000000; 0.000000; 0.000000; 0.000000; 0.000000; 0.000000; 0.000000; 0.000000; 0.000000; 0.000000; 0.000000; 0.000000; 0.000000; 0.000000; 0.000000; 0.000000; 4948; 0; 1334101893.265733
0; 2408185876;266.064024; 2108; 1988; 3044; 1682; 1684; 1669; 1641; 1649; 11789; 0000; 0000; 1695; 0001; 0000; 0000; 3758; 0000; 4239; 0000; 0256; 41.076630; 1529;  42.713585;  45.063972; -979.892273; -0.139321;  0.069786; -0.023926; -1.252888;  0.020687;  0.000000;  2493.000000; -2633.000000;  0000; 0000; 0000; 0000; 0000; 000000; 000000; 000000;  3.227897; -0.682448;  0.000000; 0000; 0000; 0000; 0000; 0000; 290717696; 000; 000; 000; 000; 255; 255; 255; 255; 000; 000;  0.000000;  0.000000; 000; 000; 000;  0.000000; 000; 000; 000;  0.000000; 0000; 0000; 0000; 0000; 0215; 0.000000; 0000; 0215; 0.000000; 0.000000; 0.000000; 0.000000; 0.000000; 0000; 0.000000; 0.000000; 0000;  0.000000;  0.000000;  0.000000; 0; 0;  0.000000; 0.000000; 0.000000; 0.000000;  0.000000;  0.000000;  0.000000; 0; -0.010148; -0.034411; -2.091217; -0.000039;  0.000047;  0.000031;  215; 266.044794; 0073; -582.000000; -1973.000000; -119838.000000; 0215; 0.000000; 0.000000; 0.000000 ; 4522; 0.000000; 0.000000; 0.000000; 0.000000; 0.000000; 0.000000; 0.000000; 0.000000; 0.000000; 0.000000; 0.000000; 0.000000; 0000; 0003; -0.497536; 0.866740; 0.034921; -0.867384; -0.497571; -0.008319; 0.010165; -0.034428; 0.999355; 0.000000; 0.000000; 0.000000; 0; 0.000000; 0.000000; 0.000000; 0.000000; 31; 18348; 4522; 277; 0; 1.732051; 286; -1; 88; 72; 0; 51; 24; 0; 85; 24; 1; 149; 28; 1; 164; 31; 0; 23; 54; 0; 51; 54; 0; 85; 54; 0; 147; 45; 0; 149; 54; 0; 23; 90; 0; 51; 90; 0; 85; 90; 0; 119; 90; 0; 149; 90; 0; 23; 119; 0; 51; 119; 0; 85; 119; 0; 119; 119; 0; 149; 119; 0; 0; 0; 0; 0; 0; 0; 0; 0; 0; 0; 0; 0; 0; 0; 0; 0; 0; 0; 0; 0; 0; 0; 0; 0; 0; 0; 0; 0; 0; 0; 0; 0; 0; 0; 0; 0; 0.000000; 0; 0; 0; 0; 0; 0; 0.000000; 0; 0; 0; 0; 0; 0; 0.000000; 0; 0; 0; 0; 0; 0; 0.000000; 0.000000; 0.000000; 0.000000; 0.000000; 0.000000; 0.000000; 0.000000; 0.000000; 0.000000; 0.000000; 0.000000; 0.000000; 0.000000; 0.000000; 0.000000; 0.000000; 0.000000; 0.000000; 0.000000; 0.000000; 0.000000; 0.000000; 0.000000; 0.000000; 0.000000; 0.000000; 5004; 0; 1334101893.265881
0; 2408185876;266.069017; 2108; 1988; 3044; 1682; 1684; 1669; 1641; 1648; 11789; 0000; 0000; 1695; 0001; 0000; 0000; 3758; 0000; 4403; 0000; 0194; 41.076393; 1529;  42.755207;  42.255981; -980.007751; -0.142689;  0.006558; -0.118175; -1.252906;  0.020706;  0.000000;  2495.000000; -2468.000000;  0000; 0000; 0000; 0000; 0000; 000000; 000000; 000000;  3.227897; -0.682448;  0.000000; 0000; 0000; 0000; 0000; 0000; 290717696; 000; 000; 000; 000; 255; 255; 255; 255; 000; 000;  0.000000;  0.000000; 000; 000; 000;  0.000000; 000; 000; 000;  0.000000; 0000; 0000; 0000; 0000; 0215; 0.000000; 0000; 0215; 0.000000; 0.000000; 0.000000; 0.000000; 0.000000; 0000; 0.000000; 0.000000; 0000;  0.000000;  0.000000;  0.000000; 0; 0;  0.000000; 0.000000; 0.000000; 0.000000;  0.000000;  0.000000;  0.000000; 0; -0.010158; -0.034428; -2.091482; -0.000039;  0.000047;  0.000031;  215; 266.061319; 0073; -583.000000; -1973.000000; -119845.000000; 0215; 0.000000; 0.000000; 0.000000 ; 4522; 0.000000; 0.000000; 0.000000; 0.000000; 0.000000; 0.000000; 0.000000; 0.000000; 0.000000; 0.000000; 0.000000; 0.000000; 0000; 0003; -0.497630; 0.866686; 0.034928; -0.867330; -0.497665; -0.008312; 0.010179; -0.034430; 0.999355; 0.000000; 0.000000; 0.000000; 0; 0.000000; 0.000000; 0.000000; 0.000000; 31; 18348; 4522; 277; 0; 1.732051; 285; -1; 88; 72; 0; 51; 24; 0; 85; 24; 1; 149; 28; 1; 164; 31; 0; 23; 54; 0; 51; 54; 0; 85; 54; 0; 147; 45; 0; 149; 54; 0; 23; 90; 0; 51; 90; 0; 85; 90; 0; 119; 90; 0; 149; 90; 0; 23; 119; 0; 51; 119; 0; 85; 119; 0; 119; 119; 0; 149; 119; 0; 0; 0; 0; 0; 0; 0; 0; 0; 0; 0; 0; 0; 0; 0; 0; 0; 0; 0; 0; 0; 0; 0; 0; 0; 0; 0; 0; 0; 0; 0; 0; 0; 0; 0; 0; 0; 0.000000; 0; 0; 0; 0; 0; 0; 0.000000; 0; 0; 0; 0; 0; 0; 0.000000; 0; 0; 0; 0; 0; 0; 0.000000; 0.000000; 0.000000; 0.000000; 0.000000; 0.000000; 0.000000; 0.000000; 0.000000; 0.000000; 0.000000; 0.000000; 0.000000; 0.000000; 0.000000; 0.000000; 0.000000; 0.000000; 0.000000; 0.000000; 0.000000; 0.000000; 0.000000; 0.000000; 0.000000; 0.000000; 0.000000; 4953; 0; 1334101893.270942
0; 2408185876;266.074026; 2108; 1988; 3044; 1683; 1684; 1669; 1643; 1650; 11789; 0000; 0000; 1695; 0001; 0000; 0000; 3758; 0000; 4565; 0000; 0134; 41.076157; 1529;  42.774281;  42.555958; -979.996765; -0.007129;  0.088461; -0.065940; -1.252923;  0.020726;  0.000000;  2496.000000; -2486.000000;  0000; 0000; 0000; 0000; 0000; 000000; 000000; 000000;  3.227897; -0.682448;  0.000000; 0000; 0000; 0000; 0000; 0000; 290717696; 000; 000; 000; 000; 255; 255; 255; 255; 000; 000;  0.000000;  0.000000; 000; 000; 000;  0.000000; 000; 000; 000;  0.000000; 0000; 0000; 0000; 0000; 0215; 0.000000; 0000; 0215; 0.000000; 0.000000; 0.000000; 0.000000; 0.000000; 0000; 0.000000; 0.000000; 0000;  0.000000;  0.000000;  0.000000; 0; 0;  0.000000; 0.000000; 0.000000; 0.000000;  0.000000;  0.000000;  0.000000; 0; -0.010158; -0.034428; -2.091482; -0.000039;  0.000047;  0.000031;  215; 266.061319; 0073; -583.000000; -1972.000000; -119851.000000; 0215; 0.000000; 0.000000; 0.000000 ; 4522; 0.000000; 0.000000; 0.000000; 0.000000; 0.000000; 0.000000; 0.000000; 0.000000; 0.000000; 0.000000; 0.000000; 0.000000; 0000; 0003; -0.497720; 0.866634; 0.034922; -0.867278; -0.497755; -0.008306; 0.010185; -0.034421; 0.999356; 0.000000; 0.000000; 0.000000; 0; 0.000000; 0.000000; 0.000000; 0.000000; 31; 18348; 4522; 278; 0; 1.732051; 284; -1; 88; 72; 0; 51; 24; 0; 85; 24; 1; 149; 28; 1; 164; 31; 0; 23; 54; 0; 51; 54; 0; 85; 54; 0; 147; 45; 0; 149; 54; 0; 23; 90; 0; 51; 90; 0; 85; 90; 0; 119; 90; 0; 149; 90; 0; 23; 119; 0; 51; 119; 0; 85; 119; 0; 119; 119; 0; 149; 119; 0; 0; 0; 0; 0; 0; 0; 0; 0; 0; 0; 0; 0; 0; 0; 0; 0; 0; 0; 0; 0; 0; 0; 0; 0; 0; 0; 0; 0; 0; 0; 0; 0; 0; 0; 0; 0; 0.000000; 0; 0; 0; 0; 0; 0; 0.000000; 0; 0; 0; 0; 0; 0; 0.000000; 0; 0; 0; 0; 0; 0; 0.000000; 0.000000; 0.000000; 0.000000; 0.000000; 0.000000; 0.000000; 0.000000; 0.000000; 0.000000; 0.000000; 0.000000; 0.000000; 0.000000; 0.000000; 0.000000; 0.000000; 0.000000; 0.000000; 0.000000; 0.000000; 0.000000; 0.000000; 0.000000; 0.000000; 0.000000; 0.000000; 4967; 0; 1334101893.276845
0; 2408185876;266.079035; 2108; 1988; 3040; 1683; 1684; 1669; 1641; 1650; 11789; 0000; 0000; 1695; 0001; 0000; 0000; 3758; 0000; 4729; 0000; 0120; 41.077492; 1530;  42.655521;  42.966862; -977.583191; -0.052934;  0.238286; -0.044140; -1.252937;  0.020746;  0.000000;  2496.000000; -2516.000000;  0000; 0000; 0000; 0000; 0000; 000000; 000000; 000000;  3.227897; -0.682448;  0.000000; 0000; 0000; 0000; 0000; 0000; 290717696; 000; 000; 000; 000; 255; 255; 255; 255; 000; 000;  0.000000;  0.000000; 000; 000; 000;  0.000000; 000; 000; 000;  0.000000; 0000; 0000; 0000; 0000; 0215; 0.000000; 0000; 0215; 0.000000; 0.000000; 0.000000; 0.000000; 0.000000; 0000; 0.000000; 0.000000; 0000;  0.000000;  0.000000;  0.000000; 0; 0;  0.000000; 0.000000; 0.000000; 0.000000;  0.000000;  0.000000;  0.000000; 0; -0.010158; -0.034428; -2.091482; -0.000044;  0.000009; -0.000011;  215; 266.061319; 0073; -583.000000; -1972.000000; -119856.000000; 0215; 0.000000; 0.000000; 0.000000 ; 4522; 0.000000; 0.000000; 0.000000; 0.000000; 0.000000; 0.000000; 0.000000; 0.000000; 0.000000; 0.000000; 0.000000; 0.000000; 0000; 0003; -0.497809; 0.866584; 0.034914; -0.867227; -0.497844; -0.008313; 0.010178; -0.034417; 0.999356; 0.000000; 0.000000; 0.000000; 0; 0.000000; 0.000000; 0.000000; 0.000000; 31; 18348; 4522; 278; 0; 2.000000; 284; -1; 88; 72; 0; 51; 24; 0; 85; 24; 1; 149; 28; 1; 164; 31; 0; 23; 54; 0; 51; 54; 0; 85; 54; 0; 147; 45; 0; 149; 54; 0; 23; 90; 0; 51; 90; 0; 85; 90; 0; 119; 90; 0; 149; 90; 0; 23; 119; 0; 51; 119; 0; 85; 119; 0; 119; 119; 0; 149; 119; 0; 0; 0; 0; 0; 0; 0; 0; 0; 0; 0; 0; 0; 0; 0; 0; 0; 0; 0; 0; 0; 0; 0; 0; 0; 0; 0; 0; 0; 0; 0; 0; 0; 0; 0; 0; 0; 0.000000; 0; 0; 0; 0; 0; 0; 0.000000; 0; 0; 0; 0; 0; 0; 0.000000; 0; 0; 0; 0; 0; 0; 0.000000; 0.000000; 0.000000; 0.000000; 0.000000; 0.000000; 0.000000; 0.000000; 0.000000; 0.000000; 0.000000; 0.000000; 0.000000; 0.000000; 0.000000; 0.000000; 0.000000; 0.000000; 0.000000; 0.000000; 0.000000; 0.000000; 0.000000; 0.000000; 0.000000; 0.000000; 0.000000; 4969; 0; 1334101893.280804
0; 2408185876;266.084057; 2108; 1988; 3040; 1682; 1685; 1669; 1640; 1651; 11789; 0000; 0000; 1694; 0001; 0000; 0000; 3758; 0000; 4891; 0000; 0120; 41.077248; 1529;  42.540150;  42.688034; -975.252686;  0.001726;  0.003806; -0.031753; -1.252952;  0.020767;  0.000000;  2495.000000; -2506.000000;  0000; 0000; 0000; 0000; 0000; 000000; 000000; 000000;  3.227897; -0.682448;  0.000000; 0000; 0000; 0000; 0000; 0000; 290717696; 000; 000; 000; 000; 255; 255; 255; 255; 000; 000;  0.000000;  0.000000; 000; 000; 000;  0.000000; 000; 000; 000;  0.000000; 0000; 0000; 0000; 0000; 0215; 0.000000; 0000; 0215; 0.000000; 0.000000; 0.000000; 0.000000; 0.000000; 0000; 0.000000; 0.000000; 0000;  0.000000;  0.000000;  0.000000; 0; 0;  0.000000; 0.000000; 0.000000; 0.000000;  0.000000;  0.000000;  0.000000; 0; -0.010185; -0.034429; -2.091794; -0.000044;  0.000009; -0.000011;  215; 266.077934; 0073; -583.000000; -1971.000000; -119862.000000; 0215; 0.000000; 0.000000; 0.000000 ; 4522; 0.000000; 0.000000; 0.000000; 0.000000; 0.000000; 0.000000; 0.000000; 0.000000; 0.000000; 0.000000; 0.000000; 0.000000; 0000; 0003; -0.497897; 0.866534; 0.034913; -0.867177; -0.497932; -0.008300; 0.010192; -0.034408; 0.999356; 0.000000; 0.000000; 0.000000; 0; 0.000000; 0.000000; 0.000000; 0.000000; 31; 18348; 4522; 278; 0; 2.000000; 283; -1; 88; 72; 0; 51; 24; 0; 85; 24; 1; 149; 28; 1; 164; 31; 0; 23; 54; 0; 51; 54; 0; 85; 54; 0; 147; 45; 0; 149; 54; 0; 23; 90; 0; 51; 90; 0; 85; 90; 0; 119; 90; 0; 149; 90; 0; 23; 119; 0; 51; 119; 0; 85; 119; 0; 119; 119; 0; 149; 119; 0; 0; 0; 0; 0; 0; 0; 0; 0; 0; 0; 0; 0; 0; 0; 0; 0; 0; 0; 0; 0; 0; 0; 0; 0; 0; 0; 0; 0; 0; 0; 0; 0; 0; 0; 0; 0; 0.000000; 0; 0; 0; 0; 0; 0; 0.000000; 0; 0; 0; 0; 0; 0; 0.000000; 0; 0; 0; 0; 0; 0; 0.000000; 0.000000; 0.000000; 0.000000; 0.000000; 0.000000; 0.000000; 0.000000; 0.000000; 0.000000; 0.000000; 0.000000; 0.000000; 0.000000; 0.000000; 0.000000; 0.000000; 0.000000; 0.000000; 0.000000; 0.000000; 0.000000; 0.000000; 0.000000; 0.000000; 0.000000; 0.000000; 4983; 0; 1334101893.285546
0; 2408185876;266.089061; 2108; 1988; 3040; 1682; 1684; 1668; 1642; 1649; 11789; 0000; 0000; 1694; 0001; 0000; 0000; 3758; 0000; 5055; 0000; 0120; 41.077003; 1530;  42.596718;  42.734131; -975.840820; -0.077018;  0.121464;  0.031079; -1.252967;  0.020787;  0.000000;  2497.000000; -2507.000000;  0000; 0000; 0000; 0000; 0000; 000000; 000000; 000000;  3.227897; -0.682448;  0.000000; 0000; 0000; 0000; 0000; 0000; 290717696; 000; 000; 000; 000; 255; 255; 255; 255; 000; 000;  0.000000;  0.000000; 000; 000; 000;  0.000000; 000; 000; 000;  0.000000; 0000; 0000; 0000; 0000; 0215; 0.000000; 0000; 0215; 0.000000; 0.000000; 0.000000; 0.000000; 0.000000; 0000; 0.000000; 0.000000; 0000;  0.000000;  0.000000;  0.000000; 0; 0;  0.000000; 0.000000; 0.000000; 0.000000;  0.000000;  0.000000;  0.000000; 0; -0.010185; -0.034429; -2.091794; -0.000044;  0.000009; -0.000011;  215; 266.077934; 0073; -584.000000; -1971.000000; -119868.000000; 0215; 0.000000; 0.000000; 0.000000 ; 4522; 0.000000; 0.000000; 0.000000; 0.000000; 0.000000; 0.000000; 0.000000; 0.000000; 0.000000; 0.000000; 0.000000; 0.000000; 0000; 0003; -0.497979; 0.866486; 0.034912; -0.867129; -0.498015; -0.008299; 0.010195; -0.034406; 0.999356; 0.000000; 0.000000; 0.000000; 0; 0.000000; 0.000000; 0.000000; 0.000000; 31; 18348; 4522; 279; 0; 2.000000; 283; -1; 88; 72; 0; 51; 24; 0; 85; 24; 1; 149; 28; 1; 164; 31; 0; 23; 54; 0; 51; 54; 0; 85; 54; 0; 147; 45; 0; 149; 54; 0; 23; 90; 0; 51; 90; 0; 85; 90; 0; 119; 90; 0; 149; 90; 0; 23; 119; 0; 51; 119; 0; 85; 119; 0; 119; 119; 0; 149; 119; 0; 0; 0; 0; 0; 0; 0; 0; 0; 0; 0; 0; 0; 0; 0; 0; 0; 0; 0; 0; 0; 0; 0; 0; 0; 0; 0; 0; 0; 0; 0; 0; 0; 0; 0; 0; 0; 0.000000; 0; 0; 0; 0; 0; 0; 0.000000; 0; 0; 0; 0; 0; 0; 0.000000; 0; 0; 0; 0; 0; 0; 0.000000; 0.000000; 0.000000; 0.000000; 0.000000; 0.000000; 0.000000; 0.000000; 0.000000; 0.000000; 0.000000; 0.000000; 0.000000; 0.000000; 0.000000; 0.000000; 0.000000; 0.000000; 0.000000; 0.000000; 0.000000; 0.000000; 0.000000; 0.000000; 0.000000; 0.000000; 0.000000; 4965; 0; 1334101893.290694
0; 2408185876;266.094068; 2108; 1984; 3040; 1682; 1684; 1669; 1642; 1648; 11789; 0000; 0000; 1695; 0001; 0792; 1730; 0000; 0000; 5217; 0000; 0120; 41.076759; 1528;  42.561096;  45.048149; -976.056885; -0.219080; -0.014947; -0.008831; -1.252970;  0.020808;  0.000000;  2494.000000; -2642.000000;  0000; 0000; 0000; 0000; 0000; 000000; 000000; 000000;  3.227897; -0.682448;  0.000000; 0000; 0000; 0000; 0000; 0000; 290717696; 000; 000; 000; 000; 255; 255; 255; 255; 000; 000;  0.000000;  0.000000; 000; 000; 000;  0.000000; 000; 000; 000;  0.000000; 0000; 0000; 0000; 0000; 0215; 0.000000; 0000; 0215; 0.000000; 0.000000; 0.000000; 0.000000; 0.000000; 0000; 0.000000; 0.000000; 0000;  0.000000;  0.000000;  0.000000; 0; 0;  0.000000; 0.000000; 0.000000; 0.000000;  0.000000;  0.000000;  0.000000; 0; -0.010185; -0.034429; -2.091794; -0.000044;  0.000009; -0.000011;  215; 266.077934; 0073; -585.000000; -1972.000000; -119873.000000; 0215; 0.000000; 0.000000; 0.000000 ; 4522; 0.000000; 0.000000; 0.000000; 0.000000; 0.000000; 0.000000; 0.000000; 0.000000; 0.000000; 0.000000; 0.000000; 0.000000; 0000; 0003; -0.498065; 0.866436; 0.034933; -0.867080; -0.498100; -0.008298; 0.010211; -0.034423; 0.999355; 0.000000; 0.000000; 0.000000; 0; 0.000000; 0.000000; 0.000000; 0.000000; 31; 18348; 4522; 279; 0; 1.732051; 282; -1; 88; 72; 0; 51; 24; 0; 85; 24; 1; 149; 28; 1; 164; 31; 0; 23; 54; 0; 51; 54; 0; 85; 54; 0; 147; 45; 0; 149; 54; 0; 23; 90; 0; 51; 90; 0; 85; 90; 0; 119; 90; 0; 149; 90; 0; 23; 119; 0; 51; 119; 0; 85; 119; 0; 119; 119; 0; 149; 119; 0; 0; 0; 0; 0; 0; 0; 0; 0; 0; 0; 0; 0; 0; 0; 0; 0; 0; 0; 0; 0; 0; 0; 0; 0; 0; 0; 0; 0; 0; 0; 0; 0; 0; 0; 0; 0; 0.000000; 0; 0; 0; 0; 0; 0; 0.000000; 0; 0; 0; 0; 0; 0; 0.000000; 0; 0; 0; 0; 0; 0; 0.000000; 0.000000; 0.000000; 0.000000; 0.000000; 0.000000; 0.000000; 0.000000; 0.000000; 0.000000; 0.000000; 0.000000; 0.000000; 0.000000; 0.000000; 0.000000; 0.000000; 0.000000; 0.000000; 0.000000; 0.000000; 0.000000; 0.000000; 0.000000; 0.000000; 0.000000; 0.000000; 4968; 0; 1334101893.295988
0; 2408185876;266.099089; 2112; 1988; 3040; 1683; 1684; 1669; 1643; 1650; 11789; 0000; 0000; 1695; 0001; 0000; 0000; 3758; 0000; 5381; 0000; 0120; 41.076523; 1529;  44.806622;  44.999882; -975.751709; -0.131407;  0.055532;  0.029826; -1.252972;  0.020816;  0.000000;  2626.000000; -2640.000000;  0000; 0000; 0000; 0000; 0000; 000000; 000000; 000000;  3.227897; -0.682448;  0.000000; 0000; 0000; 0000; 0000; 0000; 290717696; 000; 000; 000; 000; 255; 255; 255; 255; 000; 000;  0.000000;  0.000000; 000; 000; 000;  0.000000; 000; 000; 000;  0.000000; 0000; 0000; 0000; 0000; 0215; 0.000000; 0000; 0215; 0.000000; 0.000000; 0.000000; 0.000000; 0.000000; 0000; 0.000000; 0.000000; 0000;  0.000000;  0.000000;  0.000000; 0; 0;  0.000000; 0.000000; 0.000000; 0.000000;  0.000000;  0.000000;  0.000000; 0; -0.010211; -0.034431; -2.092192; -0.000010;  0.000033; -0.000008;  215; 266.094613; 0073; -585.000000; -1973.000000; -119879.000000; 0215; 0.000000; 0.000000; 0.000000 ; 4522; 0.000000; 0.000000; 0.000000; 0.000000; 0.000000; 0.000000; 0.000000; 0.000000; 0.000000; 0.000000; 0.000000; 0.000000; 0000; 0003; -0.498148; 0.866388; 0.034942; -0.867032; -0.498183; -0.008303; 0.010214; -0.034432; 0.999355; 0.000000; 0.000000; 0.000000; 0; 0.000000; 0.000000; 0.000000; 0.000000; 31; 18348; 4522; 279; 0; 1.732051; 282; -1; 88; 72; 0; 51; 24; 0; 85; 24; 1; 149; 28; 1; 164; 31; 0; 23; 54; 0; 51; 54; 0; 85; 54; 0; 147; 45; 0; 149; 54; 0; 23; 90; 0; 51; 90; 0; 85; 90; 0; 119; 90; 0; 149; 90; 0; 23; 119; 0; 51; 119; 0; 85; 119; 0; 119; 119; 0; 149; 119; 0; 0; 0; 0; 0; 0; 0; 0; 0; 0; 0; 0; 0; 0; 0; 0; 0; 0; 0; 0; 0; 0; 0; 0; 0; 0; 0; 0; 0; 0; 0; 0; 0; 0; 0; 0; 0; 0.000000; 0; 0; 0; 0; 0; 0; 0.000000; 0; 0; 0; 0; 0; 0; 0.000000; 0; 0; 0; 0; 0; 0; 0.000000; 0.000000; 0.000000; 0.000000; 0.000000; 0.000000; 0.000000; 0.000000; 0.000000; 0.000000; 0.000000; 0.000000; 0.000000; 0.000000; 0.000000; 0.000000; 0.000000; 0.000000; 0.000000; 0.000000; 0.000000; 0.000000; 0.000000; 0.000000; 0.000000; 0.000000; 0.000000; 4980; 0; 1334101893.302265
0; 2408185876;266.104075; 2112; 1988; 3044; 1682; 1685; 1669; 1639; 1649; 11789; 0000; 0000; 1695; 0001; 0000; 0000; 3758; 0000; 5543; 0000; 0120; 41.076286; 1529;  47.227219;  42.129864; -978.170654; -0.200468;  0.110671; -0.006994; -1.252991;  0.020811;  0.000000;  2761.000000; -2466.000000;  0000; 0000; 0000; 0000; 0000; 000000; 000000; 000000;  3.227897; -0.682448;  0.000000; 0000; 0000; 0000; 0000; 0000; 290717696; 000; 000; 000; 000; 255; 255; 255; 255; 000; 000;  0.000000;  0.000000; 000; 000; 000;  0.000000; 000; 000; 000;  0.000000; 0000; 0000; 0000; 0000; 0215; 0.000000; 0000; 0215; 0.000000; 0.000000; 0.000000; 0.000000; 0.000000; 0000; 0.000000; 0.000000; 0000;  0.000000;  0.000000;  0.000000; 0; 0;  0.000000; 0.000000; 0.000000; 0.000000;  0.000000;  0.000000;  0.000000; 0; -0.010211; -0.034431; -2.092192; -0.000010;  0.000033; -0.000008;  215; 266.094613; 0073; -584.000000; -1973.000000; -119884.000000; 0215; 0.000000; 0.000000; 0.000000 ; 4523; 0.000000; 0.000000; 0.000000; 0.000000; 0.000000; 0.000000; 0.000000; 0.000000; 0.000000; 0.000000; 0.000000; 0.000000; 0000; 0003; -0.498234; 0.866339; 0.034942; -0.866983; -0.498269; -0.008317; 0.010205; -0.034438; 0.999355; 0.000000; 0.000000; 0.000000; 0; 0.000000; 0.000000; 0.000000; 0.000000; 31; 18348; 4522; 279; 0; 1.732051; 281; -1; 88; 72; 0; 51; 24; 0; 85; 24; 1; 149; 28; 1; 164; 31; 0; 23; 54; 0; 51; 54; 0; 85; 54; 0; 147; 45; 0; 149; 54; 0; 23; 90; 0; 51; 90; 0; 85; 90; 0; 119; 90; 0; 149; 90; 0; 23; 119; 0; 51; 119; 0; 85; 119; 0; 119; 119; 0; 149; 119; 0; 0; 0; 0; 0; 0; 0; 0; 0; 0; 0; 0; 0; 0; 0; 0; 0; 0; 0; 0; 0; 0; 0; 0; 0; 0; 0; 0; 0; 0; 0; 0; 0; 0; 0; 0; 0; 0.000000; 0; 0; 0; 0; 0; 0; 0.000000; 0; 0; 0; 0; 0; 0; 0.000000; 0; 0; 0; 0; 0; 0; 0.000000; 0.000000; 0.000000; 0.000000; 0.000000; 0.000000; 0.000000; 0.000000; 0.000000; 0.000000; 0.000000; 0.000000; 0.000000; 0.000000; 0.000000; 0.000000; 0.000000; 0.000000; 0.000000; 0.000000; 0.000000; 0.000000; 0.000000; 0.000000; 0.000000; 0.000000; 0.000000; 4945; 0; 1334101893.310906
0; 2408185876;266.109049; 2112; 1988; 3044; 1682; 1684; 1668; 1639; 1647; 11789; 0000; 0000; 1695; 0001; 0000; 0000; 3758; 0000; 5707; 0000; 0120; 41.077621; 1529;  46.791370;  42.420235; -980.523682; -0.128358;  0.062961; -0.010848; -1.253009;  0.020809;  0.000000;  2729.000000; -2477.000000;  0000; 0000; 0000; 0000; 0000; 000000; 000000; 000000;  3.227897; -0.682448;  0.000000; 0000; 0000; 0000; 0000; 0000; 290717696; 000; 000; 000; 000; 255; 255; 255; 255; 000; 000;  0.000000;  0.000000; 000; 000; 000;  0.000000; 000; 000; 000;  0.000000; 0000; 0000; 0000; 0000; 0215; 0.000000; 0000; 0215; 0.000000; 0.000000; 0.000000; 0.000000; 0.000000; 0000; 0.000000; 0.000000; 0000;  0.000000;  0.000000;  0.000000; 0; 0;  0.000000; 0.000000; 0.000000; 0.000000;  0.000000;  0.000000;  0.000000; 0; -0.010211; -0.034431; -2.092192; -0.000010;  0.000033; -0.000008;  215; 266.094613; 0073; -584.000000; -1973.000000; -119890.000000; 0215; 0.000000; 0.000000; 0.000000 ; 4523; 0.000000; 0.000000; 0.000000; 0.000000; 0.000000; 0.000000; 0.000000; 0.000000; 0.000000; 0.000000; 0.000000; 0.000000; 0000; 0003; -0.498320; 0.866289; 0.034940; -0.866934; -0.498354; -0.008324; 0.010201; -0.034439; 0.999355; 0.000000; 0.000000; 0.000000; 0; 0.000000; 0.000000; 0.000000; 0.000000; 31; 18308; 4523; 279; 0; 1.732051; 281; -1; 88; 72; 0; 51; 24; 0; 85; 24; 1; 149; 28; 1; 164; 31; 0; 23; 54; 0; 51; 54; 0; 85; 54; 0; 147; 45; 0; 149; 54; 0; 23; 90; 0; 51; 90; 0; 85; 90; 0; 119; 90; 0; 149; 90; 0; 23; 119; 0; 51; 119; 0; 85; 119; 0; 119; 119; 0; 149; 119; 0; 0; 0; 0; 0; 0; 0; 0; 0; 0; 0; 0; 0; 0; 0; 0; 0; 0; 0; 0; 0; 0; 0; 0; 0; 0; 0; 0; 0; 0; 0; 0; 0; 0; 0; 0; 0; 0.000000; 0; 0; 0; 0; 0; 0; 0.000000; 0; 0; 0; 0; 0; 0; 0.000000; 0; 0; 0; 0; 0; 0; 0.000000; 0.000000; 0.000000; 0.000000; 0.000000; 0.000000; 0.000000; 0.000000; 0.000000; 0.000000; 0.000000; 0.000000; 0.000000; 0.000000; 0.000000; 0.000000; 0.000000; 0.000000; 0.000000; 0.000000; 0.000000; 0.000000; 0.000000; 0.000000; 0.000000; 0.000000; 0.000000; 4933; 0; 1334101893.316481
0; 2408185876;266.114112; 2112; 1984; 3044; 1682; 1684; 1669; 1641; 1651; 11789; 0000; 0000; 1695; 0001; 0000; 0000; 3758; 0000; 5869; 0000; 0120; 41.075813; 1528;  46.395874;  45.171318; -979.857910; -0.116425;  0.053169;  0.009602; -1.253012;  0.020808;  0.000000;  2708.000000; -2639.000000;  0000; 0000; 0000; 0000; 0000; 000000; 000000; 000000;  3.227897; -0.682448;  0.000000; 0000; 0000; 0000; 0000; 0000; 290717696; 000; 000; 000; 000; 255; 255; 255; 255; 000; 000;  0.000000;  0.000000; 000; 000; 000;  0.000000; 000; 000; 000;  0.000000; 0000; 0000; 0000; 0000; 0215; 0.000000; 0000; 0215; 0.000000; 0.000000; 0.000000; 0.000000; 0.000000; 0000; 0.000000; 0.000000; 0000;  0.000000;  0.000000;  0.000000; 0; 0;  0.000000; 0.000000; 0.000000; 0.000000;  0.000000;  0.000000;  0.000000; 0; -0.010202; -0.034448; -2.092485; -0.000053;  0.000015;  0.000001;  215; 266.111192; 0073; -584.000000; -1974.000000; -119896.000000; 0215; 0.000000; 0.000000; 0.000000 ; 4523; 0.000000; 0.000000; 0.000000; 0.000000; 0.000000; 0.000000; 0.000000; 0.000000; 0.000000; 0.000000; 0.000000; 0.000000; 0000; 0003; -0.498404; 0.866241; 0.034946; -0.866885; -0.498438; -0.008333; 0.010200; -0.034447; 0.999354; 0.000000; 0.000000; 0.000000; 0; 0.000000; 0.000000; 0.000000; 0.000000; 31; 18308; 4523; 280; 0; 1.732051; 280; -1; 88; 72; 0; 51; 24; 0; 85; 24; 1; 149; 28; 1; 164; 31; 0; 23; 54; 0; 51; 54; 0; 85; 54; 0; 147; 45; 0; 149; 54; 0; 23; 90; 0; 51; 90; 0; 85; 90; 0; 119; 90; 0; 149; 90; 0; 23; 119; 0; 51; 119; 0; 85; 119; 0; 119; 119; 0; 149; 119; 0; 0; 0; 0; 0; 0; 0; 0; 0; 0; 0; 0; 0; 0; 0; 0; 0; 0; 0; 0; 0; 0; 0; 0; 0; 0; 0; 0; 0; 0; 0; 0; 0; 0; 0; 0; 0; 0.000000; 0; 0; 0; 0; 0; 0; 0.000000; 0; 0; 0; 0; 0; 0; 0.000000; 0; 0; 0; 0; 0; 0; 0.000000; 0.000000; 0.000000; 0.000000; 0.000000; 0.000000; 0.000000; 0.000000; 0.000000; 0.000000; 0.000000; 0.000000; 0.000000; 0.000000; 0.000000; 0.000000; 0.000000; 0.000000; 0.000000; 0.000000; 0.000000; 0.000000; 0.000000; 0.000000; 0.000000; 0.000000; 0.000000; 5024; 0; 1334101893.316695
0; 2408185876;266.119051; 2116; 1988; 3044; 1683; 1684; 1668; 1644; 1649; 11789; 0000; 0000; 1695; 0001; 0000; 0000; 3758; 0000; 6033; 0000; 0120; 41.077148; 1528;  48.821014;  44.814213; -979.400635; -0.163028;  0.069183;  0.084168; -1.253016;  0.020795;  0.000000;  2850.000000; -2619.000000;  0000; 0000; 0000; 0000; 0000; 000000; 000000; 000000;  3.227897; -0.682448;  0.000000; 0000; 0000; 0000; 0000; 0000; 290717696; 000; 000; 000; 000; 255; 255; 255; 255; 000; 000;  0.000000;  0.000000; 000; 000; 000;  0.000000; 000; 000; 000;  0.000000; 0000; 0000; 0000; 0000; 0215; 0.000000; 0000; 0215; 0.000000; 0.000000; 0.000000; 0.000000; 0.000000; 0000; 0.000000; 0.000000; 0000;  0.000000;  0.000000;  0.000000; 0; 0;  0.000000; 0.000000; 0.000000; 0.000000;  0.000000;  0.000000;  0.000000; 0; -0.010202; -0.034448; -2.092485; -0.000053;  0.000015;  0.000001;  215; 266.111192; 0073; -583.000000; -1974.000000; -119901.000000; 0215; 0.000000; 0.000000; 0.000000 ; 4523; 0.000000; 0.000000; 0.000000; 0.000000; 0.000000; 0.000000; 0.000000; 0.000000; 0.000000; 0.000000; 0.000000; 0.000000; 0000; 0003; -0.498482; 0.866195; 0.034949; -0.866840; -0.498517; -0.008350; 0.010190; -0.034458; 0.999354; 0.000000; 0.000000; 0.000000; 0; 0.000000; 0.000000; 0.000000; 0.000000; 31; 18308; 4523; 280; 0; 1.000000; 279; -1; 88; 72; 0; 51; 24; 0; 85; 24; 1; 149; 28; 1; 164; 31; 0; 23; 54; 0; 51; 54; 0; 85; 54; 0; 147; 45; 0; 149; 54; 0; 23; 90; 0; 51; 90; 0; 85; 90; 0; 119; 90; 0; 149; 90; 0; 23; 119; 0; 51; 119; 0; 85; 119; 0; 119; 119; 0; 149; 119; 0; 0; 0; 0; 0; 0; 0; 0; 0; 0; 0; 0; 0; 0; 0; 0; 0; 0; 0; 0; 0; 0; 0; 0; 0; 0; 0; 0; 0; 0; 0; 0; 0; 0; 0; 0; 0; 0.000000; 0; 0; 0; 0; 0; 0; 0.000000; 0; 0; 0; 0; 0; 0; 0.000000; 0; 0; 0; 0; 0; 0; 0.000000; 0.000000; 0.000000; 0.000000; 0.000000; 0.000000; 0.000000; 0.000000; 0.000000; 0.000000; 0.000000; 0.000000; 0.000000; 0.000000; 0.000000; 0.000000; 0.000000; 0.000000; 0.000000; 0.000000; 0.000000; 0.000000; 0.000000; 0.000000; 0.000000; 0.000000; 0.000000; 4901; 0; 1334101893.320916
0; 2408185876;266.124058; 2116; 1984; 3044; 1682; 1684; 1669; 1641; 1648; 11789; 0000; 0000; 1695; 0001; 0000; 0000; 3758; 0000; 6195; 0000; 0120; 41.076904; 1528;  51.026413;  44.281067; -979.461182; -0.157551;  0.202203;  0.052297; -1.253024;  0.020770;  0.000000;  2979.000000; -2588.000000;  0000; 0000; 0000; 0000; 0000; 000000; 000000; 000000;  3.227897; -0.682448;  0.000000; 0000; 0000; 0000; 0000; 0000; 290717696; 000; 000; 000; 000; 255; 255; 255; 255; 000; 000;  0.000000;  0.000000; 000; 000; 000;  0.000000; 000; 000; 000;  0.000000; 0000; 0000; 0000; 0000; 0215; 0.000000; 0000; 0215; 0.000000; 0.000000; 0.000000; 0.000000; 0.000000; 0000; 0.000000; 0.000000; 0000;  0.000000;  0.000000;  0.000000; 0; 0;  0.000000; 0.000000; 0.000000; 0.000000;  0.000000;  0.000000;  0.000000; 0; -0.010202; -0.034448; -2.092485; -0.000053;  0.000015;  0.000001;  215; 266.111192; 0073; -582.000000; -1975.000000; -119906.000000; 0215; 0.000000; 0.000000; 0.000000 ; 4523; 0.000000; 0.000000; 0.000000; 0.000000; 0.000000; 0.000000; 0.000000; 0.000000; 0.000000; 0.000000; 0.000000; 0.000000; 0000; 0003; -0.498564; 0.866149; 0.034942; -0.866794; -0.498597; -0.008382; 0.010162; -0.034467; 0.999354; 0.000000; 0.000000; 0.000000; 0; 0.000000; 0.000000; 0.000000; 0.000000; 31; 18308; 4523; 280; 0; 1.000000; 278; -1; 88; 72; 0; 51; 24; 0; 85; 24; 1; 149; 28; 1; 164; 31; 0; 23; 54; 0; 51; 54; 0; 85; 54; 0; 147; 45; 0; 149; 54; 0; 23; 90; 0; 51; 90; 0; 85; 90; 0; 119; 90; 0; 149; 90; 0; 23; 119; 0; 51; 119; 0; 85; 119; 0; 119; 119; 0; 149; 119; 0; 0; 0; 0; 0; 0; 0; 0; 0; 0; 0; 0; 0; 0; 0; 0; 0; 0; 0; 0; 0; 0; 0; 0; 0; 0; 0; 0; 0; 0; 0; 0; 0; 0; 0; 0; 0; 0.000000; 0; 0; 0; 0; 0; 0; 0.000000; 0; 0; 0; 0; 0; 0; 0.000000; 0; 0; 0; 0; 0; 0; 0.000000; 0.000000; 0.000000; 0.000000; 0.000000; 0.000000; 0.000000; 0.000000; 0.000000; 0.000000; 0.000000; 0.000000; 0.000000; 0.000000; 0.000000; 0.000000; 0.000000; 0.000000; 0.000000; 0.000000; 0.000000; 0.000000; 0.000000; 0.000000; 0.000000; 0.000000; 0.000000; 4968; 0; 1334101893.326875
0; 2408185876;266.129082; 2116; 1988; 3044; 1682; 1684; 1668; 1638; 1651; 11789; 0000; 0000; 1695; 0001; 0000; 0000; 3758; 0000; 6359; 0000; 0120; 41.076668; 1529;  50.458485;  44.462055; -979.446045; -0.144620;  0.161477;  0.091082; -1.253030;  0.020748;  0.000000;  2946.000000; -2599.000000;  0000; 0000; 0000; 0000; 0000; 000000; 000000; 000000;  3.227897; -0.682448;  0.000000; 0000; 0000; 0000; 0000; 0000; 290717696; 000; 000; 000; 000; 255; 255; 255; 255; 000; 000;  0.000000;  0.000000; 000; 000; 000;  0.000000; 000; 000; 000;  0.000000; 0000; 0000; 0000; 0000; 0215; 0.000000; 0000; 0215; 0.000000; 0.000000; 0.000000; 0.000000; 0.000000; 0000; 0.000000; 0.000000; 0000;  0.000000;  0.000000;  0.000000; 0; 0;  0.000000; 0.000000; 0.000000; 0.000000;  0.000000;  0.000000;  0.000000; 0; -0.010202; -0.034448; -2.092485; -0.000039;  0.000018;  0.000008;  215; 266.111192; 0073; -580.000000; -1975.000000; -119911.000000; 0215; 0.000000; 0.000000; 0.000000 ; 4523; 0.000000; 0.000000; 0.000000; 0.000000; 0.000000; 0.000000; 0.000000; 0.000000; 0.000000; 0.000000; 0.000000; 0.000000; 0000; 0003; -0.498642; 0.866103; 0.034938; -0.866748; -0.498674; -0.008408; 0.010140; -0.034475; 0.999354; 0.000000; 0.000000; 0.000000; 0; 0.000000; 0.000000; 0.000000; 0.000000; 31; 18308; 4523; 280; 0; 1.000000; 277; -1; 88; 72; 0; 51; 24; 0; 85; 24; 1; 149; 28; 1; 164; 31; 0; 23; 54; 0; 51; 54; 0; 85; 54; 0; 147; 45; 0; 149; 54; 0; 23; 90; 0; 51; 90; 0; 85; 90; 0; 119; 90; 0; 149; 90; 0; 23; 119; 0; 51; 119; 0; 85; 119; 0; 119; 119; 0; 149; 119; 0; 0; 0; 0; 0; 0; 0; 0; 0; 0; 0; 0; 0; 0; 0; 0; 0; 0; 0; 0; 0; 0; 0; 0; 0; 0; 0; 0; 0; 0; 0; 0; 0; 0; 0; 0; 0; 0.000000; 0; 0; 0; 0; 0; 0; 0.000000; 0; 0; 0; 0; 0; 0; 0.000000; 0; 0; 0; 0; 0; 0; 0.000000; 0.000000; 0.000000; 0.000000; 0.000000; 0.000000; 0.000000; 0.000000; 0.000000; 0.000000; 0.000000; 0.000000; 0.000000; 0.000000; 0.000000; 0.000000; 0.000000; 0.000000; 0.000000; 0.000000; 0.000000; 0.000000; 0.000000; 0.000000; 0.000000; 0.000000; 0.000000; 4985; 0; 1334101893.332298
0; 2408185876;266.134118; 2116; 1988; 3044; 1682; 1684; 1669; 1640; 1650; 11789; 0000; 0000; 1695; 0001; 0792; 1730; 0000; 0000; 6521; 0000; 0120; 41.076431; 1530;  50.181454;  42.098660; -979.563721; -0.150715;  0.228739;  0.042280; -1.253050;  0.020727;  0.000000;  2929.000000; -2460.000000;  0000; 0000; 0000; 0000; 0000; 000000; 000000; 000000;  3.227897; -0.682448;  0.000000; 0000; 0000; 0000; 0000; 0000; 290717696; 000; 000; 000; 000; 255; 255; 255; 255; 000; 000;  0.000000;  0.000000; 000; 000; 000;  0.000000; 000; 000; 000;  0.000000; 0000; 0000; 0000; 0000; 0215; 0.000000; 0000; 0215; 0.000000; 0.000000; 0.000000; 0.000000; 0.000000; 0000; 0.000000; 0.000000; 0000;  0.000000;  0.000000;  0.000000; 0; 0;  0.000000; 0.000000; 0.000000; 0.000000;  0.000000;  0.000000;  0.000000; 0; -0.010163; -0.034475; -2.092767; -0.000039;  0.000018;  0.000008;  215; 266.127802; 0073; -579.000000; -1975.000000; -119917.000000; 0215; 0.000000; 0.000000; 0.000000 ; 4523; 0.000000; 0.000000; 0.000000; 0.000000; 0.000000; 0.000000; 0.000000; 0.000000; 0.000000; 0.000000; 0.000000; 0.000000; 0000; 0003; -0.498725; 0.866057; 0.034925; -0.866701; -0.498756; -0.008436; 0.010112; -0.034477; 0.999354; 0.000000; 0.000000; 0.000000; 0; 0.000000; 0.000000; 0.000000; 0.000000; 31; 18308; 4523; 281; 0; 1.000000; 277; -1; 88; 72; 0; 51; 24; 0; 85; 24; 1; 149; 28; 1; 164; 31; 0; 23; 54; 0; 51; 54; 0; 85; 54; 0; 147; 45; 0; 149; 54; 0; 23; 90; 0; 51; 90; 0; 85; 90; 0; 119; 90; 0; 149; 90; 0; 23; 119; 0; 51; 119; 0; 85; 119; 0; 119; 119; 0; 149; 119; 0; 0; 0; 0; 0; 0; 0; 0; 0; 0; 0; 0; 0; 0; 0; 0; 0; 0; 0; 0; 0; 0; 0; 0; 0; 0; 0; 0; 0; 0; 0; 0; 0; 0; 0; 0; 0; 0.000000; 0; 0; 0; 0; 0; 0; 0.000000; 0; 0; 0; 0; 0; 0; 0.000000; 0; 0; 0; 0; 0; 0; 0.000000; 0.000000; 0.000000; 0.000000; 0.000000; 0.000000; 0.000000; 0.000000; 0.000000; 0.000000; 0.000000; 0.000000; 0.000000; 0.000000; 0.000000; 0.000000; 0.000000; 0.000000; 0.000000; 0.000000; 0.000000; 0.000000; 0.000000; 0.000000; 0.000000; 0.000000; 0.000000; 4996; 0; 1334101893.336092
0; 2408185876;266.139113; 2116; 1988; 3044; 1683; 1684; 1668; 1641; 1647; 11789; 0000; 0000; 1695; 0001; 0000; 0000; 3758; 0000; 6685; 0000; 0120; 41.077766; 1529;  50.329666;  42.166893; -979.534912; -0.144123;  0.136942;  0.038961; -1.253069;  0.020706;  0.000000;  2938.000000; -2464.000000;  0000; 0000; 0000; 0000; 0000; 000000; 000000; 000000;  3.227897; -0.682448;  0.000000; 0000; 0000; 0000; 0000; 0000; 290717696; 000; 000; 000; 000; 255; 255; 255; 255; 000; 000;  0.000000;  0.000000; 000; 000; 000;  0.000000; 000; 000; 000;  0.000000; 0000; 0000; 0000; 0000; 0215; 0.000000; 0000; 0215; 0.000000; 0.000000; 0.000000; 0.000000; 0.000000; 0000; 0.000000; 0.000000; 0000;  0.000000;  0.000000;  0.000000; 0; 0;  0.000000; 0.000000; 0.000000; 0.000000;  0.000000;  0.000000;  0.000000; 0; -0.010163; -0.034475; -2.092767; -0.000039;  0.000018;  0.000008;  215; 266.127802; 0073; -578.000000; -1975.000000; -119922.000000; 0215; 0.000000; 0.000000; 0.000000 ; 4523; 0.000000; 0.000000; 0.000000; 0.000000; 0.000000; 0.000000; 0.000000; 0.000000; 0.000000; 0.000000; 0.000000; 0.000000; 0000; 0003; -0.498807; 0.866009; 0.034916; -0.866654; -0.498838; -0.008458; 0.010093; -0.034479; 0.999354; 0.000000; 0.000000; 0.000000; 0; 0.000000; 0.000000; 0.000000; 0.000000; 31; 18308; 4523; 281; 0; 1.414214; 276; -1; 88; 72; 0; 51; 24; 0; 85; 24; 1; 149; 28; 1; 164; 31; 0; 23; 54; 0; 51; 54; 0; 85; 54; 0; 147; 45; 0; 149; 54; 0; 23; 90; 0; 51; 90; 0; 85; 90; 0; 119; 90; 0; 149; 90; 0; 23; 119; 0; 51; 119; 0; 85; 119; 0; 119; 119; 0; 149; 119; 0; 0; 0; 0; 0; 0; 0; 0; 0; 0; 0; 0; 0; 0; 0; 0; 0; 0; 0; 0; 0; 0; 0; 0; 0; 0; 0; 0; 0; 0; 0; 0; 0; 0; 0; 0; 0; 0.000000; 0; 0; 0; 0; 0; 0; 0.000000; 0; 0; 0; 0; 0; 0; 0.000000; 0; 0; 0; 0; 0; 0; 0.000000; 0.000000; 0.000000; 0.000000; 0.000000; 0.000000; 0.000000; 0.000000; 0.000000; 0.000000; 0.000000; 0.000000; 0.000000; 0.000000; 0.000000; 0.000000; 0.000000; 0.000000; 0.000000; 0.000000; 0.000000; 0.000000; 0.000000; 0.000000; 0.000000; 0.000000; 0.000000; 4956; 0; 1334101893.340777
0; 2408185876;266.144112; 2116; 1984; 3044; 1683; 1684; 1668; 1643; 1649; 11789; 0000; 0000; 1695; 0001; 0000; 0000; 3758; 0000; 6847; 0000; 0120; 41.077522; 1529;  50.191895;  45.058380; -979.439209; -0.005115;  0.131506;  0.143578; -1.253073;  0.020686;  0.000000;  2930.000000; -2633.000000;  0000; 0000; 0000; 0000; 0000; 000000; 000000; 000000;  3.227897; -0.682448;  0.000000; 0000; 0000; 0000; 0000; 0000; 290717696; 000; 000; 000; 000; 255; 255; 255; 255; 000; 000;  0.000000;  0.000000; 000; 000; 000;  0.000000; 000; 000; 000;  0.000000; 0000; 0000; 0000; 0000; 0215; 0.000000; 0000; 0215; 0.000000; 0.000000; 0.000000; 0.000000; 0.000000; 0000; 0.000000; 0.000000; 0000;  0.000000;  0.000000;  0.000000; 0; 0;  0.000000; 0.000000; 0.000000; 0.000000;  0.000000;  0.000000;  0.000000; 0; -0.010163; -0.034475; -2.092767; -0.000039;  0.000018;  0.000008;  215; 266.127802; 0073; -577.000000; -1975.000000; -119927.000000; 0215; 0.000000; 0.000000; 0.000000 ; 4523; 0.000000; 0.000000; 0.000000; 0.000000; 0.000000; 0.000000; 0.000000; 0.000000; 0.000000; 0.000000; 0.000000; 0.000000; 0000; 0003; -0.498882; 0.865967; 0.034903; -0.866612; -0.498912; -0.008476; 0.010074; -0.034476; 0.999355; 0.000000; 0.000000; 0.000000; 0; 0.000000; 0.000000; 0.000000; 0.000000; 31; 18308; 4523; 281; 0; 1.414214; 275; -1; 88; 72; 0; 51; 24; 0; 85; 24; 1; 149; 28; 1; 164; 31; 0; 23; 54; 0; 51; 54; 0; 85; 54; 0; 147; 45; 0; 149; 54; 0; 23; 90; 0; 51; 90; 0; 85; 90; 0; 119; 90; 0; 149; 90; 0; 23; 119; 0; 51; 119; 0; 85; 119; 0; 119; 119; 0; 149; 119; 0; 0; 0; 0; 0; 0; 0; 0; 0; 0; 0; 0; 0; 0; 0; 0; 0; 0; 0; 0; 0; 0; 0; 0; 0; 0; 0; 0; 0; 0; 0; 0; 0; 0; 0; 0; 0; 0.000000; 0; 0; 0; 0; 0; 0; 0.000000; 0; 0; 0; 0; 0; 0; 0.000000; 0; 0; 0; 0; 0; 0; 0.000000; 0.000000; 0.000000; 0.000000; 0.000000; 0.000000; 0.000000; 0.000000; 0.000000; 0.000000; 0.000000; 0.000000; 0.000000; 0.000000; 0.000000; 0.000000; 0.000000; 0.000000; 0.000000; 0.000000; 0.000000; 0.000000; 0.000000; 0.000000; 0.000000; 0.000000; 0.000000; 4946; 0; 1334101893.345853
0; 2408185876;266.149130; 2116; 1984; 3040; 1682; 1684; 1669; 1637; 1650; 11789; 0000; 0000; 1695; 0001; 0000; 0000; 3758; 0000; 7011; 0000; 0120; 41.077278; 1528;  49.962502;  47.103619; -976.960693; -0.060556;  0.176869;  0.033753; -1.253065;  0.020667;  0.000000;  2924.000000; -2760.000000;  0000; 0000; 0000; 0000; 0000; 000000; 000000; 000000;  3.227897; -0.682448;  0.000000; 0000; 0000; 0000; 0000; 0000; 290717696; 000; 000; 000; 000; 255; 255; 255; 255; 000; 000;  0.000000;  0.000000; 000; 000; 000;  0.000000; 000; 000; 000;  0.000000; 0000; 0000; 0000; 0000; 0215; 0.000000; 0000; 0215; 0.000000; 0.000000; 0.000000; 0.000000; 0.000000; 0000; 0.000000; 0.000000; 0000;  0.000000;  0.000000;  0.000000; 0; 0;  0.000000; 0.000000; 0.000000; 0.000000;  0.000000;  0.000000;  0.000000; 0; -0.010074; -0.034485; -2.093134; -0.000043;  0.000053;  0.000016;  215; 266.144447; 0073; -575.000000; -1976.000000; -119933.000000; 0215; 0.000000; 0.000000; 0.000000 ; 4523; 0.000000; 0.000000; 0.000000; 0.000000; 0.000000; 0.000000; 0.000000; 0.000000; 0.000000; 0.000000; 0.000000; 0.000000; 0000; 0003; -0.498965; 0.865920; 0.034899; -0.866564; -0.498994; -0.008503; 0.010052; -0.034485; 0.999355; 0.000000; 0.000000; 0.000000; 0; 0.000000; 0.000000; 0.000000; 0.000000; 31; 18308; 4523; 281; 0; 1.414214; 274; -1; 88; 72; 0; 51; 24; 0; 85; 24; 1; 149; 28; 1; 164; 31; 0; 23; 54; 0; 51; 54; 0; 85; 54; 0; 147; 45; 0; 149; 54; 0; 23; 90; 0; 51; 90; 0; 85; 90; 0; 119; 90; 0; 149; 90; 0; 23; 119; 0; 51; 119; 0; 85; 119; 0; 119; 119; 0; 149; 119; 0; 0; 0; 0; 0; 0; 0; 0; 0; 0; 0; 0; 0; 0; 0; 0; 0; 0; 0; 0; 0; 0; 0; 0; 0; 0; 0; 0; 0; 0; 0; 0; 0; 0; 0; 0; 0; 0.000000; 0; 0; 0; 0; 0; 0; 0.000000; 0; 0; 0; 0; 0; 0; 0.000000; 0; 0; 0; 0; 0; 0; 0.000000; 0.000000; 0.000000; 0.000000; 0.000000; 0.000000; 0.000000; 0.000000; 0.000000; 0.000000; 0.000000; 0.000000; 0.000000; 0.000000; 0.000000; 0.000000; 0.000000; 0.000000; 0.000000; 0.000000; 0.000000; 0.000000; 0.000000; 0.000000; 0.000000; 0.000000; 0.000000; 4976; 0; 1334101893.350687
0; 2408185876;266.155445; 2112; 1984; 3044; 1682; 1684; 1669; 1641; 1650; 11789; 0000; 0000; 1695; 0001; 0000; 0000; 3758; 0000; 7173; 0000; 0120; 41.077034; 1529;  47.651726;  46.666271; -977.167480;  0.006353;  0.171143;  0.089769; -1.253059;  0.020661;  0.000000;  2788.000000; -2734.000000;  0000; 0000; 0000; 0000; 0000; 000000; 000000; 000000;  3.227897; -0.682448;  0.000000; 0000; 0000; 0000; 0000; 0000; 290717696; 000; 000; 000; 000; 255; 255; 255; 255; 000; 000;  0.000000;  0.000000; 000; 000; 000;  0.000000; 000; 000; 000;  0.000000; 0000; 0000; 0000; 0000; 0215; 0.000000; 0000; 0215; 0.000000; 0.000000; 0.000000; 0.000000; 0.000000; 0000; 0.000000; 0.000000; 0000;  0.000000;  0.000000;  0.000000; 0; 0;  0.000000; 0.000000; 0.000000; 0.000000;  0.000000;  0.000000;  0.000000; 0; -0.010074; -0.034485; -2.093134; -0.000043;  0.000053;  0.000016;  215; 266.144447; 0073; -575.000000; -1976.000000; -119938.000000; 0215; 0.000000; 0.000000; 0.000000 ; 4524; 0.000000; 0.000000; 0.000000; 0.000000; 0.000000; 0.000000; 0.000000; 0.000000; 0.000000; 0.000000; 0.000000; 0.000000; 0000; 0003; -0.499043; 0.865875; 0.034892; -0.866519; -0.499071; -0.008520; 0.010037; -0.034486; 0.999355; 0.000000; 0.000000; 0.000000; 0; 0.000000; 0.000000; 0.000000; 0.000000; 31; 18392; 4524; 282; 0; 1.414214; 274; -1; 88; 72; 0; 51; 24; 0; 85; 24; 1; 149; 28; 1; 164; 31; 0; 23; 54; 0; 51; 54; 0; 85; 54; 0; 147; 45; 0; 149; 54; 0; 23; 90; 0; 51; 90; 0; 85; 90; 0; 119; 90; 0; 149; 90; 0; 23; 119; 0; 51; 119; 0; 85; 119; 0; 119; 119; 0; 149; 119; 0; 0; 0; 0; 0; 0; 0; 0; 0; 0; 0; 0; 0; 0; 0; 0; 0; 0; 0; 0; 0; 0; 0; 0; 0; 0; 0; 0; 0; 0; 0; 0; 0; 0; 0; 0; 0; 0.000000; 0; 0; 0; 0; 0; 0; 0.000000; 0; 0; 0; 0; 0; 0; 0.000000; 0; 0; 0; 0; 0; 0; 0.000000; 0.000000; 0.000000; 0.000000; 0.000000; 0.000000; 0.000000; 0.000000; 0.000000; 0.000000; 0.000000; 0.000000; 0.000000; 0.000000; 0.000000; 0.000000; 0.000000; 0.000000; 0.000000; 0.000000; 0.000000; 0.000000; 0.000000; 0.000000; 0.000000; 0.000000; 0.000000; 6276; 0; 1334101893.357340
0; 2408185876;266.159135; 2112; 1984; 3044; 1683; 1685; 1669; 1644; 1650; 11789; 0000; 0000; 1695; 0001; 0000; 0000; 3758; 0000; 7337; 0000; 0120; 41.076790; 1529;  45.626434;  46.447769; -980.248291; -0.072009;  0.018552; -0.065605; -1.253055;  0.020666;  0.000000;  2661.000000; -2712.000000;  0000; 0000; 0000; 0000; 0000; 000000; 000000; 000000;  3.227897; -0.682448;  0.000000; 0000; 0000; 0000; 0000; 0000; 290717696; 000; 000; 000; 000; 255; 255; 255; 255; 000; 000;  0.000000;  0.000000; 000; 000; 000;  0.000000; 000; 000; 000;  0.000000; 0000; 0000; 0000; 0000; 0215; 0.000000; 0000; 0215; 0.000000; 0.000000; 0.000000; 0.000000; 0.000000; 0000; 0.000000; 0.000000; 0000;  0.000000;  0.000000;  0.000000; 0; 0;  0.000000; 0.000000; 0.000000; 0.000000;  0.000000;  0.000000;  0.000000; 0; -0.010074; -0.034485; -2.093134; -0.000043;  0.000053;  0.000016;  215; 266.144447; 0073; -575.000000; -1976.000000; -119944.000000; 0215; 0.000000; 0.000000; 0.000000 ; 4524; 0.000000; 0.000000; 0.000000; 0.000000; 0.000000; 0.000000; 0.000000; 0.000000; 0.000000; 0.000000; 0.000000; 0.000000; 0000; 0003; -0.499133; 0.865822; 0.034900; -0.866467; -0.499161; -0.008523; 0.010041; -0.034494; 0.999354; 0.000000; 0.000000; 0.000000; 0; 0.000000; 0.000000; 0.000000; 0.000000; 31; 18392; 4524; 282; 0; 1.414214; 273; -1; 88; 72; 0; 51; 24; 0; 85; 24; 1; 149; 28; 1; 164; 31; 0; 23; 54; 0; 51; 54; 0; 85; 54; 0; 147; 45; 0; 149; 54; 0; 23; 90; 0; 51; 90; 0; 85; 90; 0; 119; 90; 0; 149; 90; 0; 23; 119; 0; 51; 119; 0; 85; 119; 0; 119; 119; 0; 149; 119; 0; 0; 0; 0; 0; 0; 0; 0; 0; 0; 0; 0; 0; 0; 0; 0; 0; 0; 0; 0; 0; 0; 0; 0; 0; 0; 0; 0; 0; 0; 0; 0; 0; 0; 0; 0; 0; 0.000000; 0; 0; 0; 0; 0; 0; 0.000000; 0; 0; 0; 0; 0; 0; 0.000000; 0; 0; 0; 0; 0; 0; 0.000000; 0.000000; 0.000000; 0.000000; 0.000000; 0.000000; 0.000000; 0.000000; 0.000000; 0.000000; 0.000000; 0.000000; 0.000000; 0.000000; 0.000000; 0.000000; 0.000000; 0.000000; 0.000000; 0.000000; 0.000000; 0.000000; 0.000000; 0.000000; 0.000000; 0.000000; 0.000000; 3649; 0; 1334101893.360689
0; 2408185876;266.164164; 2108; 1988; 3048; 1682; 1684; 1669; 1642; 1651; 11789; 0000; 0000; 1695; 0001; 0000; 0000; 3758; 0000; 7499; 0000; 0120; 41.076553; 1529;  44.100563;  44.410759; -982.544678; -0.222517;  0.072247; -0.079522; -1.253063;  0.020679;  0.000000;  2567.000000; -2587.000000;  0000; 0000; 0000; 0000; 0000; 000000; 000000; 000000;  3.227897; -0.682448;  0.000000; 0000; 0000; 0000; 0000; 0000; 290717696; 000; 000; 000; 000; 255; 255; 255; 255; 000; 000;  0.000000;  0.000000; 000; 000; 000;  0.000000; 000; 000; 000;  0.000000; 0000; 0000; 0000; 0000; 0215; 0.000000; 0000; 0215; 0.000000; 0.000000; 0.000000; 0.000000; 0.000000; 0000; 0.000000; 0.000000; 0000;  0.000000;  0.000000;  0.000000; 0; 0;  0.000000; 0.000000; 0.000000; 0.000000;  0.000000;  0.000000;  0.000000; 0; -0.010041; -0.034502; -2.093423; -0.000006;  0.000047;  0.000026;  215; 266.161053; 0073; -575.000000; -1977.000000; -119950.000000; 0215; 0.000000; 0.000000; 0.000000 ; 4524; 0.000000; 0.000000; 0.000000; 0.000000; 0.000000; 0.000000; 0.000000; 0.000000; 0.000000; 0.000000; 0.000000; 0.000000; 0000; 0003; -0.499224; 0.865770; 0.034913; -0.866415; -0.499252; -0.008530; 0.010045; -0.034508; 0.999354; 0.000000; 0.000000; 0.000000; 0; 0.000000; 0.000000; 0.000000; 0.000000; 31; 18392; 4524; 282; 0; 1.414214; 272; -1; 88; 72; 0; 51; 24; 0; 85; 24; 1; 149; 28; 1; 164; 31; 0; 23; 54; 0; 51; 54; 0; 85; 54; 0; 147; 45; 0; 149; 54; 0; 23; 90; 0; 51; 90; 0; 85; 90; 0; 119; 90; 0; 149; 90; 0; 23; 119; 0; 51; 119; 0; 85; 119; 0; 119; 119; 0; 149; 119; 0; 0; 0; 0; 0; 0; 0; 0; 0; 0; 0; 0; 0; 0; 0; 0; 0; 0; 0; 0; 0; 0; 0; 0; 0; 0; 0; 0; 0; 0; 0; 0; 0; 0; 0; 0; 0; 0.000000; 0; 0; 0; 0; 0; 0; 0.000000; 0; 0; 0; 0; 0; 0; 0.000000; 0; 0; 0; 0; 0; 0; 0.000000; 0.000000; 0.000000; 0.000000; 0.000000; 0.000000; 0.000000; 0.000000; 0.000000; 0.000000; 0.000000; 0.000000; 0.000000; 0.000000; 0.000000; 0.000000; 0.000000; 0.000000; 0.000000; 0.000000; 0.000000; 0.000000; 0.000000; 0.000000; 0.000000; 0.000000; 0.000000; 4992; 0; 1334101893.368017
0; 2408185876;266.169151; 2108; 1984; 3044; 1682; 1684; 1669; 1640; 1649; 11789; 0000; 0000; 1695; 0001; 0000; 0000; 3758; 0000; 7663; 0000; 0120; 41.077888; 1529;  42.161106;  44.457687; -982.129150; -0.133428;  0.001755; -0.059308; -1.253070;  0.020702;  0.000000;  2455.000000; -2591.000000;  0000; 0000; 0000; 0000; 0000; 000000; 000000; 000000;  3.227897; -0.682448;  0.000000; 0000; 0000; 0000; 0000; 0000; 290717696; 000; 000; 000; 000; 255; 255; 255; 255; 000; 000;  0.000000;  0.000000; 000; 000; 000;  0.000000; 000; 000; 000;  0.000000; 0000; 0000; 0000; 0000; 0215; 0.000000; 0000; 0215; 0.000000; 0.000000; 0.000000; 0.000000; 0.000000; 0000; 0.000000; 0.000000; 0000;  0.000000;  0.000000;  0.000000; 0; 0;  0.000000; 0.000000; 0.000000; 0.000000;  0.000000;  0.000000;  0.000000; 0; -0.010041; -0.034502; -2.093423; -0.000006;  0.000047;  0.000026;  215; 266.161053; 0073; -576.000000; -1978.000000; -119956.000000; 0215; 0.000000; 0.000000; 0.000000 ; 4524; 0.000000; 0.000000; 0.000000; 0.000000; 0.000000; 0.000000; 0.000000; 0.000000; 0.000000; 0.000000; 0.000000; 0.000000; 0000; 0003; -0.499313; 0.865717; 0.034926; -0.866363; -0.499342; -0.008524; 0.010061; -0.034515; 0.999354; 0.000000; 0.000000; 0.000000; 0; 0.000000; 0.000000; 0.000000; 0.000000; 31; 18392; 4524; 283; 0; 1.414214; 272; -1; 88; 72; 0; 51; 24; 0; 85; 24; 1; 149; 28; 1; 164; 31; 0; 23; 54; 0; 51; 54; 0; 85; 54; 0; 147; 45; 0; 149; 54; 0; 23; 90; 0; 51; 90; 0; 85; 90; 0; 119; 90; 0; 149; 90; 0; 23; 119; 0; 51; 119; 0; 85; 119; 0; 119; 119; 0; 149; 119; 0; 0; 0; 0; 0; 0; 0; 0; 0; 0; 0; 0; 0; 0; 0; 0; 0; 0; 0; 0; 0; 0; 0; 0; 0; 0; 0; 0; 0; 0; 0; 0; 0; 0; 0; 0; 0; 0.000000; 0; 0; 0; 0; 0; 0; 0.000000; 0; 0; 0; 0; 0; 0; 0.000000; 0; 0; 0; 0; 0; 0; 0.000000; 0.000000; 0.000000; 0.000000; 0.000000; 0.000000; 0.000000; 0.000000; 0.000000; 0.000000; 0.000000; 0.000000; 0.000000; 0.000000; 0.000000; 0.000000; 0.000000; 0.000000; 0.000000; 0.000000; 0.000000; 0.000000; 0.000000; 0.000000; 0.000000; 0.000000; 0.000000; 4948; 0; 1334101893.371038
0; 2408185876;266.174139; 2108; 1984; 3044; 1682; 1684; 1669; 1641; 1650; 11913; 0000; 0000; 1694; 0001; 0792; 1730; 0000; 0000; 7825; 0000; 0120; 41.076080; 1529;  42.390659;  47.282299; -979.275879; -0.199585;  0.086863; -0.071375; -1.253062;  0.020724;  0.000000;  2475.000000; -2764.000000;  0000; 0000; 0000; 0000; 0000; 000000; 000000; 000000;  3.227897; -0.682448;  0.000000; 0000; 0000; 0000; 0000; 0000; 290717696; 000; 000; 000; 000; 255; 255; 255; 255; 000; 000;  0.000000;  0.000000; 000; 000; 000;  0.000000; 000; 000; 000;  0.000000; 0000; 0000; 0000; 0000; 0215; 0.000000; 0000; 0215; 0.000000; 0.000000; 0.000000; 0.000000; 0.000000; 0000; 0.000000; 0.000000; 0000;  0.000000;  0.000000;  0.000000; 0; 0;  0.000000; 0.000000; 0.000000; 0.000000;  0.000000;  0.000000;  0.000000; 0; -0.010041; -0.034502; -2.093423; -0.000006;  0.000047;  0.000026;  215; 266.161053; 0073; -576.000000; -1979.000000; -119962.000000; 0215; 0.000000; 0.000000; 0.000000 ; 4524; 0.000000; 0.000000; 0.000000; 0.000000; 0.000000; 0.000000; 0.000000; 0.000000; 0.000000; 0.000000; 0.000000; 0.000000; 0000; 0003; -0.499404; 0.865665; 0.034947; -0.866311; -0.499432; -0.008531; 0.010068; -0.034535; 0.999353; 0.000000; 0.000000; 0.000000; 0; 0.000000; 0.000000; 0.000000; 0.000000; 31; 18392; 4524; 283; 0; 1.414214; 271; -1; 88; 72; 0; 51; 24; 0; 85; 24; 1; 149; 28; 1; 164; 31; 0; 23; 54; 0; 51; 54; 0; 85; 54; 0; 147; 45; 0; 149; 54; 0; 23; 90; 0; 51; 90; 0; 85; 90; 0; 119; 90; 0; 149; 90; 0; 23; 119; 0; 51; 119; 0; 85; 119; 0; 119; 119; 0; 149; 119; 0; 0; 0; 0; 0; 0; 0; 0; 0; 0; 0; 0; 0; 0; 0; 0; 0; 0; 0; 0; 0; 0; 0; 0; 0; 0; 0; 0; 0; 0; 0; 0; 0; 0; 0; 0; 0; 0.000000; 0; 0; 0; 0; 0; 0; 0.000000; 0; 0; 0; 0; 0; 0; 0.000000; 0; 0; 0; 0; 0; 0; 0.000000; 0.000000; 0.000000; 0.000000; 0.000000; 0.000000; 0.000000; 0.000000; 0.000000; 0.000000; 0.000000; 0.000000; 0.000000; 0.000000; 0.000000; 0.000000; 0.000000; 0.000000; 0.000000; 0.000000; 0.000000; 0.000000; 0.000000; 0.000000; 0.000000; 0.000000; 0.000000; 4947; 0; 1334101893.375716
0; 2408185876;266.179168; 2108; 1984; 3044; 1682; 1684; 1669; 1640; 1649; 11913; 0000; 0000; 1694; 0001; 0000; 0000; 3758; 0000; 7989; 0000; 0120; 41.077415; 1530;  42.814491;  46.968437; -979.495850; -0.268090;  0.241936; -0.027060; -1.253055;  0.020744;  0.000000;  2499.000000; -2745.000000;  0000; 0000; 0000; 0000; 0000; 000000; 000000; 000000;  3.227897; -0.682448;  0.000000; 0000; 0000; 0000; 0000; 0000; 290717696; 000; 000; 000; 000; 255; 255; 255; 255; 000; 000;  0.000000;  0.000000; 000; 000; 000;  0.000000; 000; 000; 000;  0.000000; 0000; 0000; 0000; 0000; 0215; 0.000000; 0000; 0215; 0.000000; 0.000000; 0.000000; 0.000000; 0.000000; 0000; 0.000000; 0.000000; 0000;  0.000000;  0.000000;  0.000000; 0; 0;  0.000000; 0.000000; 0.000000; 0.000000;  0.000000;  0.000000;  0.000000; 0; -0.010041; -0.034502; -2.093423; -0.000041;  0.000009; -0.000020;  215; 266.161053; 0073; -576.000000; -1980.000000; -119968.000000; 0215; 0.000000; 0.000000; 0.000000 ; 4524; 0.000000; 0.000000; 0.000000; 0.000000; 0.000000; 0.000000; 0.000000; 0.000000; 0.000000; 0.000000; 0.000000; 0.000000; 0000; 0003; -0.499491; 0.865613; 0.034965; -0.866261; -0.499519; -0.008554; 0.010061; -0.034561; 0.999352; 0.000000; 0.000000; 0.000000; 0; 0.000000; 0.000000; 0.000000; 0.000000; 31; 18392; 4524; 283; 0; 1.000000; 270; -1; 88; 72; 0; 51; 24; 0; 85; 24; 1; 149; 28; 1; 164; 31; 0; 23; 54; 0; 51; 54; 0; 85; 54; 0; 147; 45; 0; 149; 54; 0; 23; 90; 0; 51; 90; 0; 85; 90; 0; 119; 90; 0; 149; 90; 0; 23; 119; 0; 51; 119; 0; 85; 119; 0; 119; 119; 0; 149; 119; 0; 0; 0; 0; 0; 0; 0; 0; 0; 0; 0; 0; 0; 0; 0; 0; 0; 0; 0; 0; 0; 0; 0; 0; 0; 0; 0; 0; 0; 0; 0; 0; 0; 0; 0; 0; 0; 0.000000; 0; 0; 0; 0; 0; 0; 0.000000; 0; 0; 0; 0; 0; 0; 0.000000; 0; 0; 0; 0; 0; 0; 0.000000; 0.000000; 0.000000; 0.000000; 0.000000; 0.000000; 0.000000; 0.000000; 0.000000; 0.000000; 0.000000; 0.000000; 0.000000; 0.000000; 0.000000; 0.000000; 0.000000; 0.000000; 0.000000; 0.000000; 0.000000; 0.000000; 0.000000; 0.000000; 0.000000; 0.000000; 0.000000; 4991; 0; 1334101893.380724
0; 2408185876;266.184161; 2108; 1984; 3044; 1682; 1684; 1669; 1639; 1650; 11913; 0000; 0000; 1695; 0001; 0000; 0000; 3758; 0000; 8151; 0000; 0120; 41.077171; 1529;  42.746433;  46.458317; -980.029541; -0.208437;  0.147306; -0.039287; -1.253052;  0.020764;  0.000000;  2494.000000; -2714.000000;  0000; 0000; 0000; 0000; 0000; 000000; 000000; 000000;  3.227897; -0.682448;  0.000000; 0000; 0000; 0000; 0000; 0000; 290717696; 000; 000; 000; 000; 255; 255; 255; 255; 000; 000;  0.000000;  0.000000; 000; 000; 000;  0.000000; 000; 000; 000;  0.000000; 0000; 0000; 0000; 0000; 0215; 0.000000; 0000; 0215; 0.000000; 0.000000; 0.000000; 0.000000; 0.000000; 0000; 0.000000; 0.000000; 0000;  0.000000;  0.000000;  0.000000; 0; 0;  0.000000; 0.000000; 0.000000; 0.000000;  0.000000;  0.000000;  0.000000; 0; -0.010068; -0.034544; -2.093736; -0.000041;  0.000009; -0.000020;  215; 266.177677; 0073; -576.000000; -1981.000000; -119973.000000; 0215; 0.000000; 0.000000; 0.000000 ; 4524; 0.000000; 0.000000; 0.000000; 0.000000; 0.000000; 0.000000; 0.000000; 0.000000; 0.000000; 0.000000; 0.000000; 0.000000; 0000; 0003; -0.499579; 0.865562; 0.034981; -0.866210; -0.499607; -0.008566; 0.010062; -0.034580; 0.999351; 0.000000; 0.000000; 0.000000; 0; 0.000000; 0.000000; 0.000000; 0.000000; 31; 18392; 4524; 283; 0; 1.000000; 269; -1; 88; 72; 0; 51; 24; 0; 85; 24; 1; 149; 28; 1; 164; 31; 0; 23; 54; 0; 51; 54; 0; 85; 54; 0; 147; 45; 0; 149; 54; 0; 23; 90; 0; 51; 90; 0; 85; 90; 0; 119; 90; 0; 149; 90; 0; 23; 119; 0; 51; 119; 0; 85; 119; 0; 119; 119; 0; 149; 119; 0; 0; 0; 0; 0; 0; 0; 0; 0; 0; 0; 0; 0; 0; 0; 0; 0; 0; 0; 0; 0; 0; 0; 0; 0; 0; 0; 0; 0; 0; 0; 0; 0; 0; 0; 0; 0; 0.000000; 0; 0; 0; 0; 0; 0; 0.000000; 0; 0; 0; 0; 0; 0; 0.000000; 0; 0; 0; 0; 0; 0; 0.000000; 0.000000; 0.000000; 0.000000; 0.000000; 0.000000; 0.000000; 0.000000; 0.000000; 0.000000; 0.000000; 0.000000; 0.000000; 0.000000; 0.000000; 0.000000; 0.000000; 0.000000; 0.000000; 0.000000; 0.000000; 0.000000; 0.000000; 0.000000; 0.000000; 0.000000; 0.000000; 4955; 0; 1334101893.385708
0; 2408185876;266.189203; 2108; 1984; 3044; 1682; 1684; 1669; 1644; 1649; 11913; 0000; 0000; 1695; 0001; 0000; 0000; 3758; 0000; 8315; 0000; 0120; 41.076927; 1529;  42.817448;  46.576229; -979.771484; -0.319912;  0.214397; -0.065376; -1.253047;  0.020783;  0.000000;  2499.000000; -2721.000000;  0000; 0000; 0000; 0000; 0000; 000000; 000000; 000000;  3.227897; -0.682448;  0.000000; 0000; 0000; 0000; 0000; 0000; 290717696; 000; 000; 000; 000; 255; 255; 255; 255; 000; 000;  0.000000;  0.000000; 000; 000; 000;  0.000000; 000; 000; 000;  0.000000; 0000; 0000; 0000; 0000; 0215; 0.000000; 0000; 0215; 0.000000; 0.000000; 0.000000; 0.000000; 0.000000; 0000; 0.000000; 0.000000; 0000;  0.000000;  0.000000;  0.000000; 0; 0;  0.000000; 0.000000; 0.000000; 0.000000;  0.000000;  0.000000;  0.000000; 0; -0.010068; -0.034544; -2.093736; -0.000041;  0.000009; -0.000020;  215; 266.177677; 0073; -576.000000; -1983.000000; -119979.000000; 0215; 0.000000; 0.000000; 0.000000 ; 4524; 0.000000; 0.000000; 0.000000; 0.000000; 0.000000; 0.000000; 0.000000; 0.000000; 0.000000; 0.000000; 0.000000; 0.000000; 0000; 0003; -0.499669; 0.865509; 0.035003; -0.866158; -0.499697; -0.008588; 0.010057; -0.034609; 0.999350; 0.000000; 0.000000; 0.000000; 0; 0.000000; 0.000000; 0.000000; 0.000000; 31; 18392; 4524; 283; 0; 1.000000; 269; -1; 88; 72; 0; 51; 24; 0; 85; 24; 1; 149; 28; 1; 164; 31; 0; 23; 54; 0; 51; 54; 0; 85; 54; 0; 147; 45; 0; 149; 54; 0; 23; 90; 0; 51; 90; 0; 85; 90; 0; 119; 90; 0; 149; 90; 0; 23; 119; 0; 51; 119; 0; 85; 119; 0; 119; 119; 0; 149; 119; 0; 0; 0; 0; 0; 0; 0; 0; 0; 0; 0; 0; 0; 0; 0; 0; 0; 0; 0; 0; 0; 0; 0; 0; 0; 0; 0; 0; 0; 0; 0; 0; 0; 0; 0; 0; 0; 0.000000; 0; 0; 0; 0; 0; 0; 0.000000; 0; 0; 0; 0; 0; 0; 0.000000; 0; 0; 0; 0; 0; 0; 0.000000; 0.000000; 0.000000; 0.000000; 0.000000; 0.000000; 0.000000; 0.000000; 0.000000; 0.000000; 0.000000; 0.000000; 0.000000; 0.000000; 0.000000; 0.000000; 0.000000; 0.000000; 0.000000; 0.000000; 0.000000; 0.000000; 0.000000; 0.000000; 0.000000; 0.000000; 0.000000; 5005; 0; 1334101893.390800
