VERSION 19b
Control_state [-]; ARDrone_state [-]; Time [s];     AccX_raw [LSB]; AccY_raw [LSB]; AccZ_raw [LSB];     GyroX_raw [LSB]; GyroY_raw [LSB]; GyroZ_raw [LSB]; GyroX_110_raw [LSB]; GyroY_110_raw [LSB];Battery_Voltage_raw [mV];     Alim_3V3 [LSB]; vrefEpson [LSB]; vrefIDG [LSB]; flag_echo_ini [LSB]; us_debut_echo [LSB]; us_fin_echo [LSB]; us_association_echo; us_distance_echo [LSB];     us_courbe_temps [LSB]; us_courbe_valeur [LSB]; us_courbe_ref [LSB];    Accs_temperature [K]; Gyro_temperature [LSB]; AccX_phys_filt [mg]; AccY_phys_filt [mg]; AccZ_phys_filt [mg];     GyroX_phys_filt [deg/s]; GyroY_phys_filt [deg/s]; GyroZ_phys_filt [deg/s];    GyroX_offset [deg/s]; GyroY_offset [deg/s]; GyroZ_offset [deg/s];     Theta_acc [mdeg]; Phi_acc [mdeg];    Theta_ref_embedded [mdeg]; Phi_ref_embedded [mdeg]; Psi_ref_embedded [mdeg]; Theta_ref_int [mdeg]; Phi_ref_int [mdeg];     Pitch_ref_embedded [mdeg]; Roll_ref_embedded [mdeg]; Yaw_ref_embedded [mdeg/s];     Theta_trim_embedded [mdeg]; Phi_trim_embedded [mdeg]; Yaw_trim_embedded [mdeg/s];     Pitch_rc_embedded [-]; Roll_rc_embedded [-]; Yaw_rc_embedded [-]; Gaz_rc_embedded [-]; Ag_rc_embedded [-]; User_Input [-];     PWM1 [PWM]; PWM2 [PWM]; PWM3 [PWM]; PWM4 [PWM];    SAT_PWM1 [PWM]; SAT_PWM2 [PWM]; SAT_PWM3 [PWM]; SAT_PWM4 [PWM];    Gaz_feed_forward [PWM]; Gaz_altitude [PWM]; Altitude_integral [mm/s]; Vz_Ref [mm/s] ;    u_pitch [PWM]; u_roll [PWM]; u_yaw [PWM]; yaw_u_I [PWM];    u_pitch_planif [PWM]; u_roll_planif [PWM]; u_yaw_planif [PWM]; u_gaz_planif [PWM];    Current_motor1 [mA]; Current_motor2 [mA]; Current_motor3 [mA]; Current_motor4 [mA];    Altitude_vision [mm]; Altitude_vz [mm/s]; Altitude_ref_embedded [mm]; Altitude_raw [mm];     Observer AccZ [m/s2]; Observer altitude US [m]; Estimated Altitude[m]; Estimated Vz [m/s]; Estimated acc bias [m/s2];    Observer state [-]; vb 1; vb 2;	Observer flight state [-];    Vision_tx_raw [-]; Vision_ty_raw [-]; Vision_tz_raw [-];   Vision_State [-]; Vision_defined [-];    Vision_phi_trim[rad]; Vision_phi_ref_prop[rad]; Vision_theta_trim[rad]; Vision_theta_ref_prop[rad];    Vx_body [mm/s]; Vy_body [mm/s]; Vz_body [mm/s];    New_raw_picture [-]; T_capture; F_capture; P_capture; delta_Phi; delta_Theta; delta_Psi; Alt_capture [-]; time_capture [s];	Demo_vbat [-]; Demo_theta [mdeg]; Demo_phi [mdeg]; Demo_psi [mdeg];  Demo_altitude [mm];  Demo_vx [mm/s]; Demo_vy [mm/s]; Demo_vz [mm/s];Demo_num_frames [-];    Demo_detect_rot_m11 [-]; Demo_detect_rot_m12 [-]; Demo_detect_rot_m13 [-]; Demo_detect_rot_m21 [-]; Demo_detect_rot_m22 [-]; Demo_detect_rot_m23 [-];    Demo_detect_rot_m31 [-]; Demo_detect_rot_m32 [-]; Demo_detect_rot_m33 [-]; Demo_detect_trans_v1 [-]; Demo_detect_trans_v2 [-]; Demo_detect_trans_v3 [-]; 	Demo_detect_tag_index [-]; Demo_camera_type [-]; Demo_drone_camera_rot_m11 [-]; Demo_drone_camera_rot_m12 [-]; Demo_drone_camera_rot_m13 [-];    Demo_drone_camera_rot_m21 [-]; Demo_drone_camera_rot_m22 [-]; Demo_drone_camera_rot_m23 [-]; Demo_drone_camera_rot_m31 [-]; Demo_drone_camera_rot_m32 [-];    Demo_drone_camera_rot_m33 [-]; Demo_drone_camera_trans_x [-]; Demo_drone_camera_trans_y [-]; Demo_drone_camera_trans_z [-];	nd_iphone_flag [-]; nd_iphone_phi [-]; nd_iphone_theta [-]; nd_iphone_gaz [-]; nd_iphone_yaw [-];	quant [-]; encoded_frame_size [bytes]; encoded_frame_number [-]; atcmd_ref_seq [-]; atcmd_mean_ref_gap [ms]; atcmd_var_ref_gap [SU]; atcmd_ref_quality[-];Locked_0; X_0; Y_0; Locked_1; X_1; Y_1; Locked_2; X_2; Y_2; Locked_3; X_3; Y_3; Locked_4; X_4; Y_4; Locked_5; X_5; Y_5; Locked_6; X_6; Y_6; Locked_7; X_7; Y_7; Locked_8; X_8; Y_8; Locked_9; X_9; Y_9; Locked_10; X_10; Y_10; Locked_11; X_11; Y_11; Locked_12; X_12; Y_12; Locked_13; X_13; Y_13; Locked_14; X_14; Y_14; Locked_15; X_15; Y_15; Locked_16; X_16; Y_16; Locked_17; X_17; Y_17; Locked_18; X_18; Y_18; Locked_19; X_19; Y_19; Locked_20; X_20; Y_20; Locked_21; X_21; Y_21; Locked_22; X_22; Y_22; Locked_23; X_23; Y_23; Locked_24; X_24; Y_24; Locked_25; X_25; Y_25; Locked_26; X_26; Y_26; Locked_27; X_27; Y_27; Locked_28; X_28; Y_28; Locked_29; X_29; Y_29; Nb_detected; Type_0; Xd_0; Yd_0; W_0; H_0; D_0; O_0; Type_1; Xd_1; Yd_1; W_1; H_1; D_1; O_1; Type_2; Xd_2; Yd_2; W_2; H_2; D_2; O_2; Type_3; Xd_3; Yd_3; W_3; H_3; D_3; O_3; Perf_szo [ms]; Perf_corners [ms]; Perf_compute [ms]; Perf_tracking [ms]; Perf_trans [ms]; Perf_update [ms]; Perf_Custom_0; Perf_Custom_1; Perf_Custom_2; Perf_Custom_3; Perf_Custom_4; Perf_Custom_5; Perf_Custom_6; Perf_Custom_7; Perf_Custom_8; Perf_Custom_9; Perf_Custom_10; Perf_Custom_11; Perf_Custom_12; Perf_Custom_13; Perf_Custom_14; Perf_Custom_15; Perf_Custom_16; Perf_Custom_17; Perf_Custom_18; Perf_Custom_19; Watchdog Control [-]; flag_new_picture [-]; Sample time [s]; 
0; 3481927764;191.647233; 2112; 1984; 3044; 1683; 1684; 1669; 1645; 1649; 12006; 0000; 0000; 1695; 0001; 0000; 0000; 3758; 0000; 6196; 0000; 0120; 40.557671; 1527;  47.239746;  46.462986; -979.537354; -0.065694;  0.177766; -0.051183; -1.184465; -0.005436;  0.000000;  2757.000000; -2715.000000;  0000; 0000; 0000; 0000; 0000; 000000; 000000; 000000;  3.227897; -0.682448;  0.000000; 0000; 0000; 0000; 0000; 0000; 290717696; 000; 000; 000; 000; 255; 255; 255; 255; 000; 000;  0.000000;  0.000000; 000; 000; 000;  0.000000; 000; 000; 000;  0.000000; 0000; 0000; 0000; 0000; 0215; 0.000000; 0000; 0215; 0.000000; 0.000000; 0.000000; 0.000000; 0.000000; 0000; 0.000000; 0.000000; 0000;  0.000000;  0.000000;  0.000000; 0; 0;  0.000000; 0.000000; 0.000000; 0.000000;  0.000000;  0.000000;  0.000000; 0; -0.012672; -0.034069; -0.598116; -0.000041;  0.000010; -0.000015;  215; 191.636966; 0072; -724.000000; -1953.000000; -34287.000000; 0215; 0.000000; 0.000000; 0.000000 ; 3139; 0.000000; 0.000000; 0.000000; 0.000000; 0.000000; 0.000000; 0.000000; 0.000000; 0.000000; 0.000000; 0.000000; 0.000000; 0000; 0003; 0.826159; 0.563369; 0.008759; -0.563295; 0.825502; 0.035283; 0.012646; -0.034084; 0.999339; 0.000000; 0.000000; 0.000000; 0; 0.000000; 0.000000; 0.000000; 0.000000; 31; 18336; 3139; 265; 0; 7.141428; 322; -1; 88; 72; 0; 51; 24; 0; 85; 24; 1; 149; 28; 1; 164; 31; 0; 23; 54; 0; 51; 54; 0; 85; 54; 0; 147; 45; 0; 149; 54; 0; 23; 90; 0; 51; 90; 0; 85; 90; 0; 119; 90; 0; 149; 90; 0; 23; 119; 0; 51; 119; 0; 85; 119; 0; 119; 119; 0; 149; 119; 0; 0; 0; 0; 0; 0; 0; 0; 0; 0; 0; 0; 0; 0; 0; 0; 0; 0; 0; 0; 0; 0; 0; 0; 0; 0; 0; 0; 0; 0; 0; 0; 0; 0; 0; 0; 0; 0.000000; 0; 0; 0; 0; 0; 0; 0.000000; 0; 0; 0; 0; 0; 0; 0.000000; 0; 0; 0; 0; 0; 0; 0.000000; 0.000000; 0.000000; 0.000000; 0.000000; 0.000000; 0.000000; 0.000000; 0.000000; 0.000000; 0.000000; 0.000000; 0.000000; 0.000000; 0.000000; 0.000000; 0.000000; 0.000000; 0.000000; 0.000000; 0.000000; 0.000000; 0.000000; 0.000000; 0.000000; 0.000000; 0.000000; 4982; 0; 1334101818.848471
0; 3481927764;191.652219; 2108; 1980; 3044; 1683; 1684; 1669; 1641; 1649; 12006; 0000; 0000; 1695; 0001; 0000; 0000; 3758; 0000; 6358; 0000; 0120; 40.557495; 1527;  44.356934;  48.849377; -979.661865; -0.055438;  0.249946; -0.051425; -1.184446; -0.005438;  0.000000;  2589.000000; -2854.000000;  0000; 0000; 0000; 0000; 0000; 000000; 000000; 000000;  3.227897; -0.682448;  0.000000; 0000; 0000; 0000; 0000; 0000; 290717696; 000; 000; 000; 000; 255; 255; 255; 255; 000; 000;  0.000000;  0.000000; 000; 000; 000;  0.000000; 000; 000; 000;  0.000000; 0000; 0000; 0000; 0000; 0215; 0.000000; 0000; 0215; 0.000000; 0.000000; 0.000000; 0.000000; 0.000000; 0000; 0.000000; 0.000000; 0000;  0.000000;  0.000000;  0.000000; 0; 0;  0.000000; 0.000000; 0.000000; 0.000000;  0.000000;  0.000000;  0.000000; 0; -0.012672; -0.034069; -0.598116; -0.000041;  0.000010; -0.000015;  215; 191.636966; 0072; -723.000000; -1954.000000; -34293.000000; 0215; 0.000000; 0.000000; 0.000000 ; 3139; 0.000000; 0.000000; 0.000000; 0.000000; 0.000000; 0.000000; 0.000000; 0.000000; 0.000000; 0.000000; 0.000000; 0.000000; 0000; 0003; 0.826101; 0.563454; 0.008787; -0.563381; 0.825444; 0.035282; 0.012627; -0.034097; 0.999339; 0.000000; 0.000000; 0.000000; 0; 0.000000; 0.000000; 0.000000; 0.000000; 31; 18336; 3139; 265; 0; 7.071068; 323; -1; 88; 72; 0; 51; 24; 0; 85; 24; 1; 149; 28; 1; 164; 31; 0; 23; 54; 0; 51; 54; 0; 85; 54; 0; 147; 45; 0; 149; 54; 0; 23; 90; 0; 51; 90; 0; 85; 90; 0; 119; 90; 0; 149; 90; 0; 23; 119; 0; 51; 119; 0; 85; 119; 0; 119; 119; 0; 149; 119; 0; 0; 0; 0; 0; 0; 0; 0; 0; 0; 0; 0; 0; 0; 0; 0; 0; 0; 0; 0; 0; 0; 0; 0; 0; 0; 0; 0; 0; 0; 0; 0; 0; 0; 0; 0; 0; 0.000000; 0; 0; 0; 0; 0; 0; 0.000000; 0; 0; 0; 0; 0; 0; 0.000000; 0; 0; 0; 0; 0; 0; 0.000000; 0.000000; 0.000000; 0.000000; 0.000000; 0.000000; 0.000000; 0.000000; 0.000000; 0.000000; 0.000000; 0.000000; 0.000000; 0.000000; 0.000000; 0.000000; 0.000000; 0.000000; 0.000000; 0.000000; 0.000000; 0.000000; 0.000000; 0.000000; 0.000000; 0.000000; 0.000000; 4945; 0; 1334101818.853607
0; 3481927764;191.657251; 2108; 1984; 3044; 1683; 1685; 1669; 1643; 1651; 12006; 0000; 0000; 1695; 0001; 0792; 1796; 0000; 0000; 6522; 0000; 0120; 40.557320; 1527;  41.817516;  48.783371; -979.782959; -0.037564; -0.004117; -0.051086; -1.184428; -0.005427;  0.000000;  2440.000000; -2850.000000;  0000; 0000; 0000; 0000; 0000; 000000; 000000; 000000;  3.227897; -0.682448;  0.000000; 0000; 0000; 0000; 0000; 0000; 290717696; 000; 000; 000; 000; 255; 255; 255; 255; 000; 000;  0.000000;  0.000000; 000; 000; 000;  0.000000; 000; 000; 000;  0.000000; 0000; 0000; 0000; 0000; 0215; 0.000000; 0000; 0215; 0.000000; 0.000000; 0.000000; 0.000000; 0.000000; 0000; 0.000000; 0.000000; 0000;  0.000000;  0.000000;  0.000000; 0; 0;  0.000000; 0.000000; 0.000000; 0.000000;  0.000000;  0.000000;  0.000000; 0; -0.012627; -0.034106; -0.598526; -0.000019;  0.000030; -0.000015;  215; 191.653611; 0072; -724.000000; -1954.000000; -34298.000000; 0215; 0.000000; 0.000000; 0.000000 ; 3139; 0.000000; 0.000000; 0.000000; 0.000000; 0.000000; 0.000000; 0.000000; 0.000000; 0.000000; 0.000000; 0.000000; 0.000000; 0000; 0003; 0.826043; 0.563538; 0.008789; -0.563465; 0.825386; 0.035297; 0.012637; -0.034109; 0.999338; 0.000000; 0.000000; 0.000000; 0; 0.000000; 0.000000; 0.000000; 0.000000; 31; 18336; 3139; 265; 0; 7.071068; 324; -1; 88; 72; 0; 51; 24; 0; 85; 24; 1; 149; 28; 1; 164; 31; 0; 23; 54; 0; 51; 54; 0; 85; 54; 0; 147; 45; 0; 149; 54; 0; 23; 90; 0; 51; 90; 0; 85; 90; 0; 119; 90; 0; 149; 90; 0; 23; 119; 0; 51; 119; 0; 85; 119; 0; 119; 119; 0; 149; 119; 0; 0; 0; 0; 0; 0; 0; 0; 0; 0; 0; 0; 0; 0; 0; 0; 0; 0; 0; 0; 0; 0; 0; 0; 0; 0; 0; 0; 0; 0; 0; 0; 0; 0; 0; 0; 0; 0.000000; 0; 0; 0; 0; 0; 0; 0.000000; 0; 0; 0; 0; 0; 0; 0.000000; 0; 0; 0; 0; 0; 0; 0.000000; 0.000000; 0.000000; 0.000000; 0.000000; 0.000000; 0.000000; 0.000000; 0.000000; 0.000000; 0.000000; 0.000000; 0.000000; 0.000000; 0.000000; 0.000000; 0.000000; 0.000000; 0.000000; 0.000000; 0.000000; 0.000000; 0.000000; 0.000000; 0.000000; 0.000000; 0.000000; 4993; 0; 1334101818.858909
0; 3481927764;191.662241; 2108; 1980; 3048; 1682; 1685; 1669; 1640; 1654; 12006; 0000; 0000; 1695; 0001; 0000; 0000; 3758; 0000; 6684; 0000; 0120; 40.557144; 1527;  42.676708;  48.321167; -982.164307;  0.079725;  0.022015; -0.051110; -1.184412; -0.005420;  0.000000;  2485.000000; -2816.000000;  0000; 0000; 0000; 0000; 0000; 000000; 000000; 000000;  3.227897; -0.682448;  0.000000; 0000; 0000; 0000; 0000; 0000; 290717696; 000; 000; 000; 000; 255; 255; 255; 255; 000; 000;  0.000000;  0.000000; 000; 000; 000;  0.000000; 000; 000; 000;  0.000000; 0000; 0000; 0000; 0000; 0215; 0.000000; 0000; 0215; 0.000000; 0.000000; 0.000000; 0.000000; 0.000000; 0000; 0.000000; 0.000000; 0000;  0.000000;  0.000000;  0.000000; 0; 0;  0.000000; 0.000000; 0.000000; 0.000000;  0.000000;  0.000000;  0.000000; 0; -0.012627; -0.034106; -0.598526; -0.000019;  0.000030; -0.000015;  215; 191.653611; 0072; -724.000000; -1954.000000; -34304.000000; 0215; 0.000000; 0.000000; 0.000000 ; 3139; 0.000000; 0.000000; 0.000000; 0.000000; 0.000000; 0.000000; 0.000000; 0.000000; 0.000000; 0.000000; 0.000000; 0.000000; 0000; 0003; 0.825986; 0.563622; 0.008788; -0.563549; 0.825328; 0.035298; 0.012642; -0.034109; 0.999338; 0.000000; 0.000000; 0.000000; 0; 0.000000; 0.000000; 0.000000; 0.000000; 31; 18336; 3139; 265; 0; 7.071068; 325; -1; 88; 72; 0; 51; 24; 0; 85; 24; 1; 149; 28; 1; 164; 31; 0; 23; 54; 0; 51; 54; 0; 85; 54; 0; 147; 45; 0; 149; 54; 0; 23; 90; 0; 51; 90; 0; 85; 90; 0; 119; 90; 0; 149; 90; 0; 23; 119; 0; 51; 119; 0; 85; 119; 0; 119; 119; 0; 149; 119; 0; 0; 0; 0; 0; 0; 0; 0; 0; 0; 0; 0; 0; 0; 0; 0; 0; 0; 0; 0; 0; 0; 0; 0; 0; 0; 0; 0; 0; 0; 0; 0; 0; 0; 0; 0; 0; 0.000000; 0; 0; 0; 0; 0; 0; 0.000000; 0; 0; 0; 0; 0; 0; 0.000000; 0; 0; 0; 0; 0; 0; 0.000000; 0.000000; 0.000000; 0.000000; 0.000000; 0.000000; 0.000000; 0.000000; 0.000000; 0.000000; 0.000000; 0.000000; 0.000000; 0.000000; 0.000000; 0.000000; 0.000000; 0.000000; 0.000000; 0.000000; 0.000000; 0.000000; 0.000000; 0.000000; 0.000000; 0.000000; 0.000000; 4952; 0; 1334101818.863800
0; 3481927700;191.667242; 2108; 1980; 3044; 1683; 1684; 1669; 1642; 1649; 12006; 0000; 0000; 1695; 0001; 0000; 0000; 3758; 0000; 6848; 0000; 0120; 40.556969; 1527;  42.829578;  50.917072; -981.999756; -0.048140; -0.077192; -0.051278; -1.184383; -0.005414;  0.000000;  2494.000000; -2968.000000;  0000; 0000; 0000; 0000; 0000; 000000; 000000; 000000;  3.227897; -0.682448;  0.000000; 0000; 0000; 0000; 0000; 0000; 290717696; 000; 000; 000; 000; 255; 255; 255; 255; 000; 000;  0.000000;  0.000000; 000; 000; 000;  0.000000; 000; 000; 000;  0.000000; 0000; 0000; 0000; 0000; 0215; 0.000000; 0000; 0215; 0.000000; 0.000000; 0.000000; 0.000000; 0.000000; 0000; 0.000000; 0.000000; 0000;  0.000000;  0.000000;  0.000000; 0; 0;  0.000000; 0.000000; 0.000000; 0.000000;  0.000000;  0.000000;  0.000000; 0; -0.012627; -0.034106; -0.598526; -0.000019;  0.000030; -0.000015;  215; 191.653611; 0072; -725.000000; -1955.000000; -34310.000000; 0215; 0.000000; 0.000000; 0.000000 ; 3140; 0.000000; 0.000000; 0.000000; 0.000000; 0.000000; 0.000000; 0.000000; 0.000000; 0.000000; 0.000000; 0.000000; 0.000000; 0000; 0003; 0.825928; 0.563707; 0.008791; -0.563633; 0.825270; 0.035320; 0.012655; -0.034127; 0.999337; 0.000000; 0.000000; 0.000000; 0; 0.000000; 0.000000; 0.000000; 0.000000; 31; 18352; 3140; 270; 0; 7.071068; 326; -1; 88; 72; 0; 51; 24; 0; 85; 24; 1; 149; 28; 1; 164; 31; 0; 23; 54; 0; 51; 54; 0; 85; 54; 0; 147; 45; 0; 149; 54; 0; 23; 90; 0; 51; 90; 0; 85; 90; 0; 119; 90; 0; 149; 90; 0; 23; 119; 0; 51; 119; 0; 85; 119; 0; 119; 119; 0; 149; 119; 0; 0; 0; 0; 0; 0; 0; 0; 0; 0; 0; 0; 0; 0; 0; 0; 0; 0; 0; 0; 0; 0; 0; 0; 0; 0; 0; 0; 0; 0; 0; 0; 0; 0; 0; 0; 0; 0.000000; 0; 0; 0; 0; 0; 0; 0.000000; 0; 0; 0; 0; 0; 0; 0.000000; 0; 0; 0; 0; 0; 0; 0.000000; 0.000000; 0.000000; 0.000000; 0.000000; 0.000000; 0.000000; 0.000000; 0.000000; 0.000000; 0.000000; 0.000000; 0.000000; 0.000000; 0.000000; 0.000000; 0.000000; 0.000000; 0.000000; 0.000000; 0.000000; 0.000000; 0.000000; 0.000000; 0.000000; 0.000000; 0.000000; 4960; 0; 1334101818.868870
0; 2408185876;191.672231; 2108; 1984; 3048; 1683; 1684; 1669; 1644; 1648; 12006; 0000; 0000; 1695; 0001; 0000; 0000; 3758; 0000; 7010; 0000; 0120; 40.556793; 1527;  42.659531;  48.486263; -981.560547; -0.065819; -0.081694; -0.051192; -1.184366; -0.005408;  0.000000;  2485.000000; -2827.000000;  0000; 0000; 0000; 0000; 0000; 000000; 000000; 000000;  3.227897; -0.682448;  0.000000; 0000; 0000; 0000; 0000; 0000; 290717696; 000; 000; 000; 000; 255; 255; 255; 255; 000; 000;  0.000000;  0.000000; 000; 000; 000;  0.000000; 000; 000; 000;  0.000000; 0000; 0000; 0000; 0000; 0215; 0.000000; 0000; 0215; 0.000000; 0.000000; 0.000000; 0.000000; 0.000000; 0000; 0.000000; 0.000000; 0000;  0.000000;  0.000000;  0.000000; 0; 0;  0.000000; 0.000000; 0.000000; 0.000000;  0.000000;  0.000000;  0.000000; 0; -0.012627; -0.034106; -0.598526; -0.000001;  0.000026; -0.000015;  215; 191.653611; 0072; -725.000000; -1956.000000; -34316.000000; 0215; 0.000000; 0.000000; 0.000000 ; 3140; 0.000000; 0.000000; 0.000000; 0.000000; 0.000000; 0.000000; 0.000000; 0.000000; 0.000000; 0.000000; 0.000000; 0.000000; 0000; 0003; 0.825871; 0.563791; 0.008791; -0.563717; 0.825212; 0.035338; 0.012669; -0.034140; 0.999337; 0.000000; 0.000000; 0.000000; 0; 0.000000; 0.000000; 0.000000; 0.000000; 31; 18352; 3140; 270; 0; 7.071068; 327; -1; 88; 72; 0; 51; 24; 0; 85; 24; 1; 149; 28; 1; 164; 31; 0; 23; 54; 0; 51; 54; 0; 85; 54; 0; 147; 45; 0; 149; 54; 0; 23; 90; 0; 51; 90; 0; 85; 90; 0; 119; 90; 0; 149; 90; 0; 23; 119; 0; 51; 119; 0; 85; 119; 0; 119; 119; 0; 149; 119; 0; 0; 0; 0; 0; 0; 0; 0; 0; 0; 0; 0; 0; 0; 0; 0; 0; 0; 0; 0; 0; 0; 0; 0; 0; 0; 0; 0; 0; 0; 0; 0; 0; 0; 0; 0; 0; 0.000000; 0; 0; 0; 0; 0; 0; 0.000000; 0; 0; 0; 0; 0; 0; 0.000000; 0; 0; 0; 0; 0; 0; 0.000000; 0.000000; 0.000000; 0.000000; 0.000000; 0.000000; 0.000000; 0.000000; 0.000000; 0.000000; 0.000000; 0.000000; 0.000000; 0.000000; 0.000000; 0.000000; 0.000000; 0.000000; 0.000000; 0.000000; 0.000000; 0.000000; 0.000000; 0.000000; 0.000000; 0.000000; 0.000000; 4950; 0; 1334101818.873624
0; 2408185876;191.677421; 2108; 1984; 3048; 1682; 1684; 1668; 1643; 1647; 12006; 0000; 0000; 1695; 0001; 0000; 0000; 3758; 0000; 7174; 0000; 0120; 40.556618; 1527;  42.918629;  45.790413; -984.297119; -0.149130;  0.210650;  0.027575; -1.184365; -0.005402;  0.000000;  2494.000000; -2663.000000;  0000; 0000; 0000; 0000; 0000; 000000; 000000; 000000;  3.227897; -0.682448;  0.000000; 0000; 0000; 0000; 0000; 0000; 290717696; 000; 000; 000; 000; 255; 255; 255; 255; 000; 000;  0.000000;  0.000000; 000; 000; 000;  0.000000; 000; 000; 000;  0.000000; 0000; 0000; 0000; 0000; 0215; 0.000000; 0000; 0215; 0.000000; 0.000000; 0.000000; 0.000000; 0.000000; 0000; 0.000000; 0.000000; 0000;  0.000000;  0.000000;  0.000000; 0; 0;  0.000000; 0.000000; 0.000000; 0.000000;  0.000000;  0.000000;  0.000000; 0; -0.012655; -0.034136; -0.598832; -0.000001;  0.000026; -0.000015;  215; 191.670210; 0072; -725.000000; -1957.000000; -34321.000000; 0215; 0.000000; 0.000000; 0.000000 ; 3140; 0.000000; 0.000000; 0.000000; 0.000000; 0.000000; 0.000000; 0.000000; 0.000000; 0.000000; 0.000000; 0.000000; 0.000000; 0000; 0003; 0.825817; 0.563870; 0.008811; -0.563797; 0.825157; 0.035341; 0.012657; -0.034153; 0.999336; 0.000000; 0.000000; 0.000000; 0; 0.000000; 0.000000; 0.000000; 0.000000; 31; 18352; 3140; 270; 0; 7.071068; 329; -1; 88; 72; 0; 51; 24; 0; 85; 24; 1; 149; 28; 1; 164; 31; 0; 23; 54; 0; 51; 54; 0; 85; 54; 0; 147; 45; 0; 149; 54; 0; 23; 90; 0; 51; 90; 0; 85; 90; 0; 119; 90; 0; 149; 90; 0; 23; 119; 0; 51; 119; 0; 85; 119; 0; 119; 119; 0; 149; 119; 0; 0; 0; 0; 0; 0; 0; 0; 0; 0; 0; 0; 0; 0; 0; 0; 0; 0; 0; 0; 0; 0; 0; 0; 0; 0; 0; 0; 0; 0; 0; 0; 0; 0; 0; 0; 0; 0.000000; 0; 0; 0; 0; 0; 0; 0.000000; 0; 0; 0; 0; 0; 0; 0.000000; 0; 0; 0; 0; 0; 0; 0.000000; 0.000000; 0.000000; 0.000000; 0.000000; 0.000000; 0.000000; 0.000000; 0.000000; 0.000000; 0.000000; 0.000000; 0.000000; 0.000000; 0.000000; 0.000000; 0.000000; 0.000000; 0.000000; 0.000000; 0.000000; 0.000000; 0.000000; 0.000000; 0.000000; 0.000000; 0.000000; 5135; 0; 1334101818.880446
0; 2408185876;191.682265; 2108; 1984; 3048; 1682; 1684; 1669; 1640; 1649; 12006; 0000; 0000; 1695; 0001; 0000; 0000; 3758; 0000; 7336; 0000; 0120; 40.556442; 1528;  42.945557;  46.621265; -984.151123; -0.114253;  0.254620;  0.000337; -1.184359; -0.005397;  0.000000;  2495.000000; -2712.000000;  0000; 0000; 0000; 0000; 0000; 000000; 000000; 000000;  3.227897; -0.682448;  0.000000; 0000; 0000; 0000; 0000; 0000; 290717696; 000; 000; 000; 000; 255; 255; 255; 255; 000; 000;  0.000000;  0.000000; 000; 000; 000;  0.000000; 000; 000; 000;  0.000000; 0000; 0000; 0000; 0000; 0215; 0.000000; 0000; 0215; 0.000000; 0.000000; 0.000000; 0.000000; 0.000000; 0000; 0.000000; 0.000000; 0000;  0.000000;  0.000000;  0.000000; 0; 0;  0.000000; 0.000000; 0.000000; 0.000000;  0.000000;  0.000000;  0.000000; 0; -0.012655; -0.034136; -0.598832; -0.000001;  0.000026; -0.000015;  215; 191.670210; 0072; -724.000000; -1958.000000; -34327.000000; 0215; 0.000000; 0.000000; 0.000000 ; 3140; 0.000000; 0.000000; 0.000000; 0.000000; 0.000000; 0.000000; 0.000000; 0.000000; 0.000000; 0.000000; 0.000000; 0.000000; 0000; 0003; 0.825761; 0.563950; 0.008835; -0.563878; 0.825102; 0.035340; 0.012641; -0.034164; 0.999336; 0.000000; 0.000000; 0.000000; 0; 0.000000; 0.000000; 0.000000; 0.000000; 31; 18352; 3140; 270; 0; 7.071068; 330; -1; 88; 72; 0; 51; 24; 0; 85; 24; 1; 149; 28; 1; 164; 31; 0; 23; 54; 0; 51; 54; 0; 85; 54; 0; 147; 45; 0; 149; 54; 0; 23; 90; 0; 51; 90; 0; 85; 90; 0; 119; 90; 0; 149; 90; 0; 23; 119; 0; 51; 119; 0; 85; 119; 0; 119; 119; 0; 149; 119; 0; 0; 0; 0; 0; 0; 0; 0; 0; 0; 0; 0; 0; 0; 0; 0; 0; 0; 0; 0; 0; 0; 0; 0; 0; 0; 0; 0; 0; 0; 0; 0; 0; 0; 0; 0; 0; 0.000000; 0; 0; 0; 0; 0; 0; 0.000000; 0; 0; 0; 0; 0; 0; 0.000000; 0; 0; 0; 0; 0; 0; 0.000000; 0.000000; 0.000000; 0.000000; 0.000000; 0.000000; 0.000000; 0.000000; 0.000000; 0.000000; 0.000000; 0.000000; 0.000000; 0.000000; 0.000000; 0.000000; 0.000000; 0.000000; 0.000000; 0.000000; 0.000000; 0.000000; 0.000000; 0.000000; 0.000000; 0.000000; 0.000000; 4807; 0; 1334101818.884110
0; 2408185876;191.687438; 2108; 1984; 3048; 1682; 1685; 1669; 1640; 1649; 12006; 0000; 0000; 1695; 0001; 0000; 0000; 3758; 0000; 7500; 0000; 0120; 40.556267; 1528;  42.974888;  46.846851; -983.618896; -0.319377;  0.073945;  0.034998; -1.184352; -0.005392;  0.000000;  2498.000000; -2726.000000;  0000; 0000; 0000; 0000; 0000; 000000; 000000; 000000;  3.227897; -0.682448;  0.000000; 0000; 0000; 0000; 0000; 0000; 290717696; 000; 000; 000; 000; 255; 255; 255; 255; 000; 000;  0.000000;  0.000000; 000; 000; 000;  0.000000; 000; 000; 000;  0.000000; 0000; 0000; 0000; 0000; 0215; 0.000000; 0000; 0215; 0.000000; 0.000000; 0.000000; 0.000000; 0.000000; 0000; 0.000000; 0.000000; 0000;  0.000000;  0.000000;  0.000000; 0; 0;  0.000000; 0.000000; 0.000000; 0.000000;  0.000000;  0.000000;  0.000000; 0; -0.012655; -0.034136; -0.598832; -0.000025;  0.000005; -0.000007;  215; 191.670210; 0072; -724.000000; -1959.000000; -34332.000000; 0215; 0.000000; 0.000000; 0.000000 ; 3140; 0.000000; 0.000000; 0.000000; 0.000000; 0.000000; 0.000000; 0.000000; 0.000000; 0.000000; 0.000000; 0.000000; 0.000000; 0000; 0003; 0.825708; 0.564028; 0.008856; -0.563956; 0.825047; 0.035364; 0.012640; -0.034195; 0.999335; 0.000000; 0.000000; 0.000000; 0; 0.000000; 0.000000; 0.000000; 0.000000; 31; 18352; 3140; 270; 0; 7.071068; 331; -1; 88; 72; 0; 51; 24; 0; 85; 24; 1; 149; 28; 1; 164; 31; 0; 23; 54; 0; 51; 54; 0; 85; 54; 0; 147; 45; 0; 149; 54; 0; 23; 90; 0; 51; 90; 0; 85; 90; 0; 119; 90; 0; 149; 90; 0; 23; 119; 0; 51; 119; 0; 85; 119; 0; 119; 119; 0; 149; 119; 0; 0; 0; 0; 0; 0; 0; 0; 0; 0; 0; 0; 0; 0; 0; 0; 0; 0; 0; 0; 0; 0; 0; 0; 0; 0; 0; 0; 0; 0; 0; 0; 0; 0; 0; 0; 0; 0.000000; 0; 0; 0; 0; 0; 0; 0.000000; 0; 0; 0; 0; 0; 0; 0.000000; 0; 0; 0; 0; 0; 0; 0.000000; 0.000000; 0.000000; 0.000000; 0.000000; 0.000000; 0.000000; 0.000000; 0.000000; 0.000000; 0.000000; 0.000000; 0.000000; 0.000000; 0.000000; 0.000000; 0.000000; 0.000000; 0.000000; 0.000000; 0.000000; 0.000000; 0.000000; 0.000000; 0.000000; 0.000000; 0.000000; 5133; 0; 1334101818.890626
0; 2408185876;191.692254; 2108; 1984; 3048; 1682; 1685; 1669; 1644; 1651; 12006; 0000; 0000; 1695; 0001; 0000; 0000; 3758; 0000; 7662; 0000; 0120; 40.556099; 1527;  42.995426;  46.696095; -983.849609; -0.322935; -0.011215; -0.009999; -1.184346; -0.005388;  0.000000;  2499.000000; -2717.000000;  0000; 0000; 0000; 0000; 0000; 000000; 000000; 000000;  3.227897; -0.682448;  0.000000; 0000; 0000; 0000; 0000; 0000; 290717696; 000; 000; 000; 000; 255; 255; 255; 255; 000; 000;  0.000000;  0.000000; 000; 000; 000;  0.000000; 000; 000; 000;  0.000000; 0000; 0000; 0000; 0000; 0215; 0.000000; 0000; 0215; 0.000000; 0.000000; 0.000000; 0.000000; 0.000000; 0000; 0.000000; 0.000000; 0000;  0.000000;  0.000000;  0.000000; 0; 0;  0.000000; 0.000000; 0.000000; 0.000000;  0.000000;  0.000000;  0.000000; 0; -0.012641; -0.034174; -0.599128; -0.000025;  0.000005; -0.000007;  215; 191.686861; 0072; -724.000000; -1961.000000; -34338.000000; 0215; 0.000000; 0.000000; 0.000000 ; 3140; 0.000000; 0.000000; 0.000000; 0.000000; 0.000000; 0.000000; 0.000000; 0.000000; 0.000000; 0.000000; 0.000000; 0.000000; 0000; 0003; 0.825652; 0.564110; 0.008871; -0.564038; 0.824990; 0.035392; 0.012647; -0.034225; 0.999334; 0.000000; 0.000000; 0.000000; 0; 0.000000; 0.000000; 0.000000; 0.000000; 31; 18352; 3140; 275; 0; 7.071068; 332; -1; 88; 72; 0; 51; 24; 0; 85; 24; 1; 149; 28; 1; 164; 31; 0; 23; 54; 0; 51; 54; 0; 85; 54; 0; 147; 45; 0; 149; 54; 0; 23; 90; 0; 51; 90; 0; 85; 90; 0; 119; 90; 0; 149; 90; 0; 23; 119; 0; 51; 119; 0; 85; 119; 0; 119; 119; 0; 149; 119; 0; 0; 0; 0; 0; 0; 0; 0; 0; 0; 0; 0; 0; 0; 0; 0; 0; 0; 0; 0; 0; 0; 0; 0; 0; 0; 0; 0; 0; 0; 0; 0; 0; 0; 0; 0; 0; 0.000000; 0; 0; 0; 0; 0; 0; 0.000000; 0; 0; 0; 0; 0; 0; 0.000000; 0; 0; 0; 0; 0; 0; 0.000000; 0.000000; 0.000000; 0.000000; 0.000000; 0.000000; 0.000000; 0.000000; 0.000000; 0.000000; 0.000000; 0.000000; 0.000000; 0.000000; 0.000000; 0.000000; 0.000000; 0.000000; 0.000000; 0.000000; 0.000000; 0.000000; 0.000000; 0.000000; 0.000000; 0.000000; 0.000000; 4779; 0; 1334101818.913007
0; 2408185940;191.697286; 2108; 1984; 3048; 1683; 1684; 1669; 1643; 1649; 12006; 0000; 0000; 1695; 0001; 0792; 1796; 0000; 0000; 7826; 0000; 0120; 40.555931; 1526;  42.972675;  46.635059; -983.776611; -0.204507; -0.119032; -0.092228; -1.184340; -0.005383;  0.000000;  2498.000000; -2714.000000;  0000; 0000; 0000; 0000; 0000; 000000; 000000; 000000;  3.227897; -0.682448;  0.000000; 0000; 0000; 0000; 0000; 0000; 290717696; 000; 000; 000; 000; 255; 255; 255; 255; 000; 000;  0.000000;  0.000000; 000; 000; 000;  0.000000; 000; 000; 000;  0.000000; 0000; 0000; 0000; 0000; 0215; 0.000000; 0000; 0215; 0.000000; 0.000000; 0.000000; 0.000000; 0.000000; 0000; 0.000000; 0.000000; 0000;  0.000000;  0.000000;  0.000000; 0; 0;  0.000000; 0.000000; 0.000000; 0.000000;  0.000000;  0.000000;  0.000000; 0; -0.012641; -0.034174; -0.599128; -0.000025;  0.000005; -0.000007;  215; 191.686861; 0072; -725.000000; -1962.000000; -34344.000000; 0215; 0.000000; 0.000000; 0.000000 ; 3140; 0.000000; 0.000000; 0.000000; 0.000000; 0.000000; 0.000000; 0.000000; 0.000000; 0.000000; 0.000000; 0.000000; 0.000000; 0000; 0003; 0.825593; 0.564197; 0.008872; -0.564125; 0.824930; 0.035416; 0.012663; -0.034244; 0.999333; 0.000000; 0.000000; 0.000000; 0; 0.000000; 0.000000; 0.000000; 0.000000; 31; 18352; 3140; 275; 0; 7.071068; 333; -1; 88; 72; 0; 51; 24; 0; 85; 24; 1; 149; 28; 1; 164; 31; 0; 23; 54; 0; 51; 54; 0; 85; 54; 0; 147; 45; 0; 149; 54; 0; 23; 90; 0; 51; 90; 0; 85; 90; 0; 119; 90; 0; 149; 90; 0; 23; 119; 0; 51; 119; 0; 85; 119; 0; 119; 119; 0; 149; 119; 0; 0; 0; 0; 0; 0; 0; 0; 0; 0; 0; 0; 0; 0; 0; 0; 0; 0; 0; 0; 0; 0; 0; 0; 0; 0; 0; 0; 0; 0; 0; 0; 0; 0; 0; 0; 0; 0.000000; 0; 0; 0; 0; 0; 0; 0.000000; 0; 0; 0; 0; 0; 0; 0.000000; 0; 0; 0; 0; 0; 0; 0.000000; 0.000000; 0.000000; 0.000000; 0.000000; 0.000000; 0.000000; 0.000000; 0.000000; 0.000000; 0.000000; 0.000000; 0.000000; 0.000000; 0.000000; 0.000000; 0.000000; 0.000000; 0.000000; 0.000000; 0.000000; 0.000000; 0.000000; 0.000000; 0.000000; 0.000000; 0.000000; 4993; 0; 1334101818.913162
0; 2408185940;191.702256; 2108; 1984; 3048; 1683; 1684; 1669; 1640; 1649; 12006; 0000; 0000; 1695; 0001; 0000; 0000; 3758; 0000; 7988; 0000; 0120; 40.555763; 1528;  42.936417;  46.542561; -983.818604; -0.130862; -0.062486; -0.042331; -1.184335; -0.005378;  0.000000;  2496.000000; -2708.000000;  0000; 0000; 0000; 0000; 0000; 000000; 000000; 000000;  3.227897; -0.682448;  0.000000; 0000; 0000; 0000; 0000; 0000; 290717696; 000; 000; 000; 000; 255; 255; 255; 255; 000; 000;  0.000000;  0.000000; 000; 000; 000;  0.000000; 000; 000; 000;  0.000000; 0000; 0000; 0000; 0000; 0215; 0.000000; 0000; 0215; 0.000000; 0.000000; 0.000000; 0.000000; 0.000000; 0000; 0.000000; 0.000000; 0000;  0.000000;  0.000000;  0.000000; 0; 0;  0.000000; 0.000000; 0.000000; 0.000000;  0.000000;  0.000000;  0.000000; 0; -0.012641; -0.034174; -0.599128; -0.000025;  0.000005; -0.000007;  215; 191.686861; 0072; -726.000000; -1963.000000; -34350.000000; 0215; 0.000000; 0.000000; 0.000000 ; 3140; 0.000000; 0.000000; 0.000000; 0.000000; 0.000000; 0.000000; 0.000000; 0.000000; 0.000000; 0.000000; 0.000000; 0.000000; 0000; 0003; 0.825535; 0.564281; 0.008873; -0.564208; 0.824872; 0.035433; 0.012675; -0.034257; 0.999333; 0.000000; 0.000000; 0.000000; 0; 0.000000; 0.000000; 0.000000; 0.000000; 31; 18352; 3140; 275; 0; 2.645751; 333; -1; 88; 72; 0; 51; 24; 0; 85; 24; 1; 149; 28; 1; 164; 31; 0; 23; 54; 0; 51; 54; 0; 85; 54; 0; 147; 45; 0; 149; 54; 0; 23; 90; 0; 51; 90; 0; 85; 90; 0; 119; 90; 0; 149; 90; 0; 23; 119; 0; 51; 119; 0; 85; 119; 0; 119; 119; 0; 149; 119; 0; 0; 0; 0; 0; 0; 0; 0; 0; 0; 0; 0; 0; 0; 0; 0; 0; 0; 0; 0; 0; 0; 0; 0; 0; 0; 0; 0; 0; 0; 0; 0; 0; 0; 0; 0; 0; 0.000000; 0; 0; 0; 0; 0; 0; 0.000000; 0; 0; 0; 0; 0; 0; 0.000000; 0; 0; 0; 0; 0; 0; 0.000000; 0.000000; 0.000000; 0.000000; 0.000000; 0.000000; 0.000000; 0.000000; 0.000000; 0.000000; 0.000000; 0.000000; 0.000000; 0.000000; 0.000000; 0.000000; 0.000000; 0.000000; 0.000000; 0.000000; 0.000000; 0.000000; 0.000000; 0.000000; 0.000000; 0.000000; 0.000000; 4930; 0; 1334101818.913258
0; 2408185940;191.708509; 2108; 1988; 3044; 1682; 1684; 1669; 1641; 1651; 12006; 0000; 0000; 1695; 0001; 0000; 0000; 3758; 0000; 8152; 0000; 0120; 40.555595; 1527;  42.800186;  44.072414; -981.480713; -0.016630;  0.219369; -0.079696; -1.184343; -0.005372;  0.000000;  2494.000000; -2571.000000;  0000; 0000; 0000; 0000; 0000; 000000; 000000; 000000;  3.227897; -0.682448;  0.000000; 0000; 0000; 0000; 0000; 0000; 290717696; 000; 000; 000; 000; 255; 255; 255; 255; 000; 000;  0.000000;  0.000000; 000; 000; 000;  0.000000; 000; 000; 000;  0.000000; 0000; 0000; 0000; 0000; 0215; 0.000000; 0000; 0215; 0.000000; 0.000000; 0.000000; 0.000000; 0.000000; 0000; 0.000000; 0.000000; 0000;  0.000000;  0.000000;  0.000000; 0; 0;  0.000000; 0.000000; 0.000000; 0.000000;  0.000000;  0.000000;  0.000000; 0; -0.012675; -0.034266; -0.599529; -0.000070;  0.000014; -0.000005;  215; 191.703466; 0072; -725.000000; -1963.000000; -34356.000000; 0215; 0.000000; 0.000000; 0.000000 ; 3140; 0.000000; 0.000000; 0.000000; 0.000000; 0.000000; 0.000000; 0.000000; 0.000000; 0.000000; 0.000000; 0.000000; 0.000000; 0000; 0003; 0.825476; 0.564367; 0.008885; -0.564295; 0.824813; 0.035421; 0.012663; -0.034253; 0.999333; 0.000000; 0.000000; 0.000000; 0; 0.000000; 0.000000; 0.000000; 0.000000; 31; 18352; 3140; 275; 0; 2.645751; 333; -1; 88; 72; 0; 51; 24; 0; 85; 24; 1; 149; 28; 1; 164; 31; 0; 23; 54; 0; 51; 54; 0; 85; 54; 0; 147; 45; 0; 149; 54; 0; 23; 90; 0; 51; 90; 0; 85; 90; 0; 119; 90; 0; 149; 90; 0; 23; 119; 0; 51; 119; 0; 85; 119; 0; 119; 119; 0; 149; 119; 0; 0; 0; 0; 0; 0; 0; 0; 0; 0; 0; 0; 0; 0; 0; 0; 0; 0; 0; 0; 0; 0; 0; 0; 0; 0; 0; 0; 0; 0; 0; 0; 0; 0; 0; 0; 0; 0.000000; 0; 0; 0; 0; 0; 0; 0.000000; 0; 0; 0; 0; 0; 0; 0.000000; 0; 0; 0; 0; 0; 0; 0.000000; 0.000000; 0.000000; 0.000000; 0.000000; 0.000000; 0.000000; 0.000000; 0.000000; 0.000000; 0.000000; 0.000000; 0.000000; 0.000000; 0.000000; 0.000000; 0.000000; 0.000000; 0.000000; 0.000000; 0.000000; 0.000000; 0.000000; 0.000000; 0.000000; 0.000000; 0.000000; 6212; 0; 1334101818.913437
0; 2408185940;191.712585; 2108; 1988; 3044; 1683; 1684; 1669; 1641; 1649; 12006; 0000; 0000; 1695; 0001; 0000; 0000; 3758; 0000; 8314; 0000; 0120; 40.555428; 1526;  42.712452;  41.646320; -979.244141;  0.076194;  0.252242; -0.039447; -1.184364; -0.005365;  0.000000;  2495.000000; -2435.000000;  0000; 0000; 0000; 0000; 0000; 000000; 000000; 000000;  3.227897; -0.682448;  0.000000; 0000; 0000; 0000; 0000; 0000; 290717696; 000; 000; 000; 000; 255; 255; 255; 255; 000; 000;  0.000000;  0.000000; 000; 000; 000;  0.000000; 000; 000; 000;  0.000000; 0000; 0000; 0000; 0000; 0215; 0.000000; 0000; 0215; 0.000000; 0.000000; 0.000000; 0.000000; 0.000000; 0000; 0.000000; 0.000000; 0000;  0.000000;  0.000000;  0.000000; 0; 0;  0.000000; 0.000000; 0.000000; 0.000000;  0.000000;  0.000000;  0.000000; 0; -0.012675; -0.034266; -0.599529; -0.000070;  0.000014; -0.000005;  215; 191.703466; 0072; -724.000000; -1962.000000; -34362.000000; 0215; 0.000000; 0.000000; 0.000000 ; 3140; 0.000000; 0.000000; 0.000000; 0.000000; 0.000000; 0.000000; 0.000000; 0.000000; 0.000000; 0.000000; 0.000000; 0.000000; 0000; 0003; 0.825419; 0.564451; 0.008890; -0.564380; 0.824756; 0.035396; 0.012647; -0.034234; 0.999334; 0.000000; 0.000000; 0.000000; 0; 0.000000; 0.000000; 0.000000; 0.000000; 31; 18352; 3140; 277; 0; 2.645751; 333; -1; 88; 72; 0; 51; 24; 0; 85; 24; 1; 149; 28; 1; 164; 31; 0; 23; 54; 0; 51; 54; 0; 85; 54; 0; 147; 45; 0; 149; 54; 0; 23; 90; 0; 51; 90; 0; 85; 90; 0; 119; 90; 0; 149; 90; 0; 23; 119; 0; 51; 119; 0; 85; 119; 0; 119; 119; 0; 149; 119; 0; 0; 0; 0; 0; 0; 0; 0; 0; 0; 0; 0; 0; 0; 0; 0; 0; 0; 0; 0; 0; 0; 0; 0; 0; 0; 0; 0; 0; 0; 0; 0; 0; 0; 0; 0; 0; 0.000000; 0; 0; 0; 0; 0; 0; 0.000000; 0; 0; 0; 0; 0; 0; 0.000000; 0; 0; 0; 0; 0; 0; 0.000000; 0.000000; 0.000000; 0.000000; 0.000000; 0.000000; 0.000000; 0.000000; 0.000000; 0.000000; 0.000000; 0.000000; 0.000000; 0.000000; 0.000000; 0.000000; 0.000000; 0.000000; 0.000000; 0.000000; 0.000000; 0.000000; 0.000000; 0.000000; 0.000000; 0.000000; 0.000000; 4034; 0; 1334101818.915237
0; 2408185940;191.717277; 2108; 1988; 3044; 1683; 1684; 1669; 1645; 1650; 12006; 0000; 0000; 1695; 0001; 0000; 0000; 3758; 0000; 8478; 0000; 0120; 40.555260; 1527;  42.769871;  42.244293; -979.816650; -0.102074;  0.220840; -0.033166; -1.184381; -0.005359;  0.000000;  2497.000000; -2468.000000;  0000; 0000; 0000; 0000; 0000; 000000; 000000; 000000;  3.227897; -0.682448;  0.000000; 0000; 0000; 0000; 0000; 0000; 290717696; 000; 000; 000; 000; 255; 255; 255; 255; 000; 000;  0.000000;  0.000000; 000; 000; 000;  0.000000; 000; 000; 000;  0.000000; 0000; 0000; 0000; 0000; 0215; 0.000000; 0000; 0215; 0.000000; 0.000000; 0.000000; 0.000000; 0.000000; 0000; 0.000000; 0.000000; 0000;  0.000000;  0.000000;  0.000000; 0; 0;  0.000000; 0.000000; 0.000000; 0.000000;  0.000000;  0.000000;  0.000000; 0; -0.012675; -0.034266; -0.599529; -0.000070;  0.000014; -0.000005;  215; 191.703466; 0072; -723.000000; -1961.000000; -34368.000000; 0215; 0.000000; 0.000000; 0.000000 ; 3141; 0.000000; 0.000000; 0.000000; 0.000000; 0.000000; 0.000000; 0.000000; 0.000000; 0.000000; 0.000000; 0.000000; 0.000000; 0000; 0003; 0.825361; 0.564534; 0.008903; -0.564463; 0.824699; 0.035387; 0.012635; -0.034233; 0.999334; 0.000000; 0.000000; 0.000000; 0; 0.000000; 0.000000; 0.000000; 0.000000; 31; 18284; 3141; 277; 0; 2.645751; 332; -1; 88; 72; 0; 51; 24; 0; 85; 24; 1; 149; 28; 1; 164; 31; 0; 23; 54; 0; 51; 54; 0; 85; 54; 0; 147; 45; 0; 149; 54; 0; 23; 90; 0; 51; 90; 0; 85; 90; 0; 119; 90; 0; 149; 90; 0; 23; 119; 0; 51; 119; 0; 85; 119; 0; 119; 119; 0; 149; 119; 0; 0; 0; 0; 0; 0; 0; 0; 0; 0; 0; 0; 0; 0; 0; 0; 0; 0; 0; 0; 0; 0; 0; 0; 0; 0; 0; 0; 0; 0; 0; 0; 0; 0; 0; 0; 0; 0.000000; 0; 0; 0; 0; 0; 0; 0.000000; 0; 0; 0; 0; 0; 0; 0.000000; 0; 0; 0; 0; 0; 0; 0.000000; 0.000000; 0.000000; 0.000000; 0.000000; 0.000000; 0.000000; 0.000000; 0.000000; 0.000000; 0.000000; 0.000000; 0.000000; 0.000000; 0.000000; 0.000000; 0.000000; 0.000000; 0.000000; 0.000000; 0.000000; 0.000000; 0.000000; 0.000000; 0.000000; 0.000000; 0.000000; 4650; 0; 1334101818.918705
0; 2408185940;191.722505; 2108; 1988; 3044; 1682; 1685; 1669; 1641; 1651; 12006; 0000; 0000; 1695; 0001; 0000; 0000; 3758; 0000; 8640; 0000; 0120; 40.556656; 1528;  42.785484;  42.631321; -980.103516; -0.125687;  0.076567; -0.059983; -1.184397; -0.005353;  0.000000;  2497.000000; -2490.000000;  0000; 0000; 0000; 0000; 0000; 000000; 000000; 000000;  3.227897; -0.682448;  0.000000; 0000; 0000; 0000; 0000; 0000; 290717696; 000; 000; 000; 000; 255; 255; 255; 255; 000; 000;  0.000000;  0.000000; 000; 000; 000;  0.000000; 000; 000; 000;  0.000000; 0000; 0000; 0000; 0000; 0215; 0.000000; 0000; 0215; 0.000000; 0.000000; 0.000000; 0.000000; 0.000000; 0000; 0.000000; 0.000000; 0000;  0.000000;  0.000000;  0.000000; 0; 0;  0.000000; 0.000000; 0.000000; 0.000000;  0.000000;  0.000000;  0.000000; 0; -0.012675; -0.034266; -0.599529; -0.000008;  0.000044; -0.000017;  215; 191.703466; 0072; -723.000000; -1962.000000; -34374.000000; 0215; 0.000000; 0.000000; 0.000000 ; 3141; 0.000000; 0.000000; 0.000000; 0.000000; 0.000000; 0.000000; 0.000000; 0.000000; 0.000000; 0.000000; 0.000000; 0.000000; 0000; 0003; 0.825303; 0.564620; 0.008907; -0.564549; 0.824641; 0.035388; 0.012635; -0.034234; 0.999334; 0.000000; 0.000000; 0.000000; 0; 0.000000; 0.000000; 0.000000; 0.000000; 31; 18284; 3141; 277; 0; 1.000000; 331; -1; 88; 72; 0; 51; 24; 0; 85; 24; 1; 149; 28; 1; 164; 31; 0; 23; 54; 0; 51; 54; 0; 85; 54; 0; 147; 45; 0; 149; 54; 0; 23; 90; 0; 51; 90; 0; 85; 90; 0; 119; 90; 0; 149; 90; 0; 23; 119; 0; 51; 119; 0; 85; 119; 0; 119; 119; 0; 149; 119; 0; 0; 0; 0; 0; 0; 0; 0; 0; 0; 0; 0; 0; 0; 0; 0; 0; 0; 0; 0; 0; 0; 0; 0; 0; 0; 0; 0; 0; 0; 0; 0; 0; 0; 0; 0; 0; 0.000000; 0; 0; 0; 0; 0; 0; 0.000000; 0; 0; 0; 0; 0; 0; 0.000000; 0; 0; 0; 0; 0; 0; 0.000000; 0.000000; 0.000000; 0.000000; 0.000000; 0.000000; 0.000000; 0.000000; 0.000000; 0.000000; 0.000000; 0.000000; 0.000000; 0.000000; 0.000000; 0.000000; 0.000000; 0.000000; 0.000000; 0.000000; 0.000000; 0.000000; 0.000000; 0.000000; 0.000000; 0.000000; 0.000000; 5187; 0; 1334101818.924106
0; 2408185940;191.727303; 2108; 1984; 3044; 1683; 1684; 1669; 1642; 1650; 12006; 0000; 0000; 1695; 0001; 0000; 0000; 3758; 0000; 8804; 0000; 0120; 40.556480; 1526;  42.690346;  44.928524; -979.853271;  0.021299;  0.035960; -0.056460; -1.184400; -0.005346;  0.000000;  2492.000000; -2625.000000;  0000; 0000; 0000; 0000; 0000; 000000; 000000; 000000;  3.227897; -0.682448;  0.000000; 0000; 0000; 0000; 0000; 0000; 290717696; 000; 000; 000; 000; 255; 255; 255; 255; 000; 000;  0.000000;  0.000000; 000; 000; 000;  0.000000; 000; 000; 000;  0.000000; 0000; 0000; 0000; 0000; 0215; 0.000000; 0000; 0215; 0.000000; 0.000000; 0.000000; 0.000000; 0.000000; 0000; 0.000000; 0.000000; 0000;  0.000000;  0.000000;  0.000000; 0; 0;  0.000000; 0.000000; 0.000000; 0.000000;  0.000000;  0.000000;  0.000000; 0; -0.012635; -0.034242; -0.599838; -0.000008;  0.000044; -0.000017;  215; 191.721951; 0072; -724.000000; -1961.000000; -34379.000000; 0215; 0.000000; 0.000000; 0.000000 ; 3141; 0.000000; 0.000000; 0.000000; 0.000000; 0.000000; 0.000000; 0.000000; 0.000000; 0.000000; 0.000000; 0.000000; 0.000000; 0000; 0003; 0.825245; 0.564705; 0.008905; -0.564633; 0.824583; 0.035385; 0.012639; -0.034230; 0.999334; 0.000000; 0.000000; 0.000000; 0; 0.000000; 0.000000; 0.000000; 0.000000; 31; 18284; 3141; 277; 0; 1.000000; 331; -1; 88; 72; 0; 51; 24; 0; 85; 24; 1; 149; 28; 1; 164; 31; 0; 23; 54; 0; 51; 54; 0; 85; 54; 0; 147; 45; 0; 149; 54; 0; 23; 90; 0; 51; 90; 0; 85; 90; 0; 119; 90; 0; 149; 90; 0; 23; 119; 0; 51; 119; 0; 85; 119; 0; 119; 119; 0; 149; 119; 0; 0; 0; 0; 0; 0; 0; 0; 0; 0; 0; 0; 0; 0; 0; 0; 0; 0; 0; 0; 0; 0; 0; 0; 0; 0; 0; 0; 0; 0; 0; 0; 0; 0; 0; 0; 0; 0.000000; 0; 0; 0; 0; 0; 0; 0.000000; 0; 0; 0; 0; 0; 0; 0.000000; 0; 0; 0; 0; 0; 0; 0.000000; 0.000000; 0.000000; 0.000000; 0.000000; 0.000000; 0.000000; 0.000000; 0.000000; 0.000000; 0.000000; 0.000000; 0.000000; 0.000000; 0.000000; 0.000000; 0.000000; 0.000000; 0.000000; 0.000000; 0.000000; 0.000000; 0.000000; 0.000000; 0.000000; 0.000000; 0.000000; 4760; 0; 1334101818.929196
0; 2408185940;191.732259; 2108; 1988; 3048; 1683; 1684; 1669; 1642; 1649; 12006; 0000; 0000; 1695; 0001; 0000; 0000; 3758; 0000; 8966; 0000; 0120; 40.557869; 1527;  42.784058;  45.102673; -982.291016; -0.111000;  0.017353; -0.048346; -1.184402; -0.005340;  0.000000;  2491.000000; -2628.000000;  0000; 0000; 0000; 0000; 0000; 000000; 000000; 000000;  3.227897; -0.682448;  0.000000; 0000; 0000; 0000; 0000; 0000; 290717696; 000; 000; 000; 000; 255; 255; 255; 255; 000; 000;  0.000000;  0.000000; 000; 000; 000;  0.000000; 000; 000; 000;  0.000000; 0000; 0000; 0000; 0000; 0215; 0.000000; 0000; 0215; 0.000000; 0.000000; 0.000000; 0.000000; 0.000000; 0000; 0.000000; 0.000000; 0000;  0.000000;  0.000000;  0.000000; 0; 0;  0.000000; 0.000000; 0.000000; 0.000000;  0.000000;  0.000000;  0.000000; 0; -0.012635; -0.034242; -0.599838; -0.000008;  0.000044; -0.000017;  215; 191.721951; 0072; -724.000000; -1962.000000; -34385.000000; 0215; 0.000000; 0.000000; 0.000000 ; 3141; 0.000000; 0.000000; 0.000000; 0.000000; 0.000000; 0.000000; 0.000000; 0.000000; 0.000000; 0.000000; 0.000000; 0.000000; 0000; 0003; 0.825187; 0.564789; 0.008909; -0.564717; 0.824525; 0.035393; 0.012644; -0.034237; 0.999334; 0.000000; 0.000000; 0.000000; 0; 0.000000; 0.000000; 0.000000; 0.000000; 31; 18284; 3141; 277; 0; 1.000000; 330; -1; 88; 72; 0; 51; 24; 0; 85; 24; 1; 149; 28; 1; 164; 31; 0; 23; 54; 0; 51; 54; 0; 85; 54; 0; 147; 45; 0; 149; 54; 0; 23; 90; 0; 51; 90; 0; 85; 90; 0; 119; 90; 0; 149; 90; 0; 23; 119; 0; 51; 119; 0; 85; 119; 0; 119; 119; 0; 149; 119; 0; 0; 0; 0; 0; 0; 0; 0; 0; 0; 0; 0; 0; 0; 0; 0; 0; 0; 0; 0; 0; 0; 0; 0; 0; 0; 0; 0; 0; 0; 0; 0; 0; 0; 0; 0; 0; 0.000000; 0; 0; 0; 0; 0; 0; 0.000000; 0; 0; 0; 0; 0; 0; 0.000000; 0; 0; 0; 0; 0; 0; 0.000000; 0.000000; 0.000000; 0.000000; 0.000000; 0.000000; 0.000000; 0.000000; 0.000000; 0.000000; 0.000000; 0.000000; 0.000000; 0.000000; 0.000000; 0.000000; 0.000000; 0.000000; 0.000000; 0.000000; 0.000000; 0.000000; 0.000000; 0.000000; 0.000000; 0.000000; 0.000000; 4918; 0; 1334101818.935126
0; 2408185876;191.737296; 2112; 1988; 3044; 1683; 1685; 1669; 1643; 1648; 12006; 0000; 0000; 1695; 0001; 0792; 1792; 0000; 0000; 9142; 0000; 0120; 40.559258; 1527;  45.072762;  42.302212; -982.202881;  0.076977;  0.000880; -0.052400; -1.184420; -0.005346;  0.000000;  2624.000000; -2466.000000;  0000; 0000; 0000; 0000; 0000; 000000; 000000; 000000;  3.227897; -0.682448;  0.000000; 0000; 0000; 0000; 0000; 0000; 290717696; 000; 000; 000; 000; 255; 255; 255; 255; 000; 000;  0.000000;  0.000000; 000; 000; 000;  0.000000; 000; 000; 000;  0.000000; 0000; 0000; 0000; 0000; 0215; 0.000000; 0000; 0215; 0.000000; 0.000000; 0.000000; 0.000000; 0.000000; 0000; 0.000000; 0.000000; 0000;  0.000000;  0.000000;  0.000000; 0; 0;  0.000000; 0.000000; 0.000000; 0.000000;  0.000000;  0.000000;  0.000000; 0; -0.012635; -0.034242; -0.599838; -0.000018;  0.000029; -0.000013;  215; 191.721951; 0072; -724.000000; -1961.000000; -34391.000000; 0215; 0.000000; 0.000000; 0.000000 ; 3141; 0.000000; 0.000000; 0.000000; 0.000000; 0.000000; 0.000000; 0.000000; 0.000000; 0.000000; 0.000000; 0.000000; 0.000000; 0000; 0003; 0.825130; 0.564873; 0.008902; -0.564802; 0.824468; 0.035378; 0.012644; -0.034219; 0.999334; 0.000000; 0.000000; 0.000000; 0; 0.000000; 0.000000; 0.000000; 0.000000; 31; 18284; 3141; 283; 0; 1.000000; 329; -1; 88; 72; 0; 51; 24; 0; 85; 24; 1; 149; 28; 1; 164; 31; 0; 23; 54; 0; 51; 54; 0; 85; 54; 0; 147; 45; 0; 149; 54; 0; 23; 90; 0; 51; 90; 0; 85; 90; 0; 119; 90; 0; 149; 90; 0; 23; 119; 0; 51; 119; 0; 85; 119; 0; 119; 119; 0; 149; 119; 0; 0; 0; 0; 0; 0; 0; 0; 0; 0; 0; 0; 0; 0; 0; 0; 0; 0; 0; 0; 0; 0; 0; 0; 0; 0; 0; 0; 0; 0; 0; 0; 0; 0; 0; 0; 0; 0.000000; 0; 0; 0; 0; 0; 0; 0.000000; 0; 0; 0; 0; 0; 0; 0.000000; 0; 0; 0; 0; 0; 0; 0.000000; 0.000000; 0.000000; 0.000000; 0.000000; 0.000000; 0.000000; 0.000000; 0.000000; 0.000000; 0.000000; 0.000000; 0.000000; 0.000000; 0.000000; 0.000000; 0.000000; 0.000000; 0.000000; 0.000000; 0.000000; 0.000000; 0.000000; 0.000000; 0.000000; 0.000000; 0.000000; 4996; 0; 1334101818.939024
0; 2408185876;191.742287; 2112; 1984; 3044; 1683; 1684; 1669; 1644; 1650; 12006; 0000; 0000; 1695; 0001; 0000; 0000; 3758; 0000; 9293; 0000; 0120; 40.559074; 1527;  47.060009;  44.912445; -979.054688;  0.129165;  0.173134; -0.049457; -1.184423; -0.005363;  0.000000;  2749.000000; -2626.000000;  0000; 0000; 0000; 0000; 0000; 000000; 000000; 000000;  3.227897; -0.682448;  0.000000; 0000; 0000; 0000; 0000; 0000; 290717696; 000; 000; 000; 000; 255; 255; 255; 255; 000; 000;  0.000000;  0.000000; 000; 000; 000;  0.000000; 000; 000; 000;  0.000000; 0000; 0000; 0000; 0000; 0215; 0.000000; 0000; 0215; 0.000000; 0.000000; 0.000000; 0.000000; 0.000000; 0000; 0.000000; 0.000000; 0000;  0.000000;  0.000000;  0.000000; 0; 0;  0.000000; 0.000000; 0.000000; 0.000000;  0.000000;  0.000000;  0.000000; 0; -0.012645; -0.034246; -0.600146; -0.000018;  0.000029; -0.000013;  215; 191.736701; 0072; -723.000000; -1960.000000; -34397.000000; 0215; 0.000000; 0.000000; 0.000000 ; 3141; 0.000000; 0.000000; 0.000000; 0.000000; 0.000000; 0.000000; 0.000000; 0.000000; 0.000000; 0.000000; 0.000000; 0.000000; 0000; 0003; 0.825072; 0.564958; 0.008915; -0.564887; 0.824411; 0.035354; 0.012624; -0.034205; 0.999335; 0.000000; 0.000000; 0.000000; 0; 0.000000; 0.000000; 0.000000; 0.000000; 31; 18284; 3141; 283; 0; 1.414214; 328; -1; 88; 72; 0; 51; 24; 0; 85; 24; 1; 149; 28; 1; 164; 31; 0; 23; 54; 0; 51; 54; 0; 85; 54; 0; 147; 45; 0; 149; 54; 0; 23; 90; 0; 51; 90; 0; 85; 90; 0; 119; 90; 0; 149; 90; 0; 23; 119; 0; 51; 119; 0; 85; 119; 0; 119; 119; 0; 149; 119; 0; 0; 0; 0; 0; 0; 0; 0; 0; 0; 0; 0; 0; 0; 0; 0; 0; 0; 0; 0; 0; 0; 0; 0; 0; 0; 0; 0; 0; 0; 0; 0; 0; 0; 0; 0; 0; 0.000000; 0; 0; 0; 0; 0; 0; 0.000000; 0; 0; 0; 0; 0; 0; 0.000000; 0; 0; 0; 0; 0; 0; 0.000000; 0.000000; 0.000000; 0.000000; 0.000000; 0.000000; 0.000000; 0.000000; 0.000000; 0.000000; 0.000000; 0.000000; 0.000000; 0.000000; 0.000000; 0.000000; 0.000000; 0.000000; 0.000000; 0.000000; 0.000000; 0.000000; 0.000000; 0.000000; 0.000000; 0.000000; 0.000000; 4953; 0; 1334101818.943959
0; 2408185876;191.747298; 2112; 1988; 3048; 1683; 1684; 1669; 1643; 1649; 12006; 0000; 0000; 1695; 0001; 0000; 0000; 3758; 0000; 9455; 0000; 0120; 40.558891; 1528;  46.699898;  45.384502; -981.735596;  0.016115;  0.012319; -0.050159; -1.184423; -0.005378;  0.000000;  2720.000000; -2646.000000;  0000; 0000; 0000; 0000; 0000; 000000; 000000; 000000;  3.227897; -0.682448;  0.000000; 0000; 0000; 0000; 0000; 0000; 290717696; 000; 000; 000; 000; 255; 255; 255; 255; 000; 000;  0.000000;  0.000000; 000; 000; 000;  0.000000; 000; 000; 000;  0.000000; 0000; 0000; 0000; 0000; 0215; 0.000000; 0000; 0215; 0.000000; 0.000000; 0.000000; 0.000000; 0.000000; 0000; 0.000000; 0.000000; 0000;  0.000000;  0.000000;  0.000000; 0; 0;  0.000000; 0.000000; 0.000000; 0.000000;  0.000000;  0.000000;  0.000000; 0; -0.012645; -0.034246; -0.600146; -0.000018;  0.000029; -0.000013;  215; 191.736701; 0072; -723.000000; -1960.000000; -34403.000000; 0215; 0.000000; 0.000000; 0.000000 ; 3141; 0.000000; 0.000000; 0.000000; 0.000000; 0.000000; 0.000000; 0.000000; 0.000000; 0.000000; 0.000000; 0.000000; 0.000000; 0000; 0003; 0.825014; 0.565042; 0.008921; -0.564971; 0.824353; 0.035347; 0.012619; -0.034202; 0.999335; 0.000000; 0.000000; 0.000000; 0; 0.000000; 0.000000; 0.000000; 0.000000; 31; 18284; 3141; 283; 0; 1.414214; 328; -1; 88; 72; 0; 51; 24; 0; 85; 24; 1; 149; 28; 1; 164; 31; 0; 23; 54; 0; 51; 54; 0; 85; 54; 0; 147; 45; 0; 149; 54; 0; 23; 90; 0; 51; 90; 0; 85; 90; 0; 119; 90; 0; 149; 90; 0; 23; 119; 0; 51; 119; 0; 85; 119; 0; 119; 119; 0; 149; 119; 0; 0; 0; 0; 0; 0; 0; 0; 0; 0; 0; 0; 0; 0; 0; 0; 0; 0; 0; 0; 0; 0; 0; 0; 0; 0; 0; 0; 0; 0; 0; 0; 0; 0; 0; 0; 0; 0.000000; 0; 0; 0; 0; 0; 0; 0.000000; 0; 0; 0; 0; 0; 0; 0.000000; 0; 0; 0; 0; 0; 0; 0.000000; 0.000000; 0.000000; 0.000000; 0.000000; 0.000000; 0.000000; 0.000000; 0.000000; 0.000000; 0.000000; 0.000000; 0.000000; 0.000000; 0.000000; 0.000000; 0.000000; 0.000000; 0.000000; 0.000000; 0.000000; 0.000000; 0.000000; 0.000000; 0.000000; 0.000000; 0.000000; 4973; 0; 1334101818.949938
0; 2408185876;191.752300; 2108; 1988; 3048; 1683; 1684; 1669; 1643; 1651; 12006; 0000; 0000; 1695; 0001; 0000; 0000; 3758; 0000; 9619; 0000; 0120; 40.558708; 1528;  44.424225;  42.382191; -984.829834;  0.141648;  0.166006; -0.053225; -1.184441; -0.005381;  0.000000;  2580.000000; -2464.000000;  0000; 0000; 0000; 0000; 0000; 000000; 000000; 000000;  3.227897; -0.682448;  0.000000; 0000; 0000; 0000; 0000; 0000; 290717696; 000; 000; 000; 000; 255; 255; 255; 255; 000; 000;  0.000000;  0.000000; 000; 000; 000;  0.000000; 000; 000; 000;  0.000000; 0000; 0000; 0000; 0000; 0215; 0.000000; 0000; 0215; 0.000000; 0.000000; 0.000000; 0.000000; 0.000000; 0000; 0.000000; 0.000000; 0000;  0.000000;  0.000000;  0.000000; 0; 0;  0.000000; 0.000000; 0.000000; 0.000000;  0.000000;  0.000000;  0.000000; 0; -0.012645; -0.034246; -0.600146; -0.000018;  0.000029; -0.000013;  215; 191.736701; 0072; -722.000000; -1958.000000; -34409.000000; 0215; 0.000000; 0.000000; 0.000000 ; 3141; 0.000000; 0.000000; 0.000000; 0.000000; 0.000000; 0.000000; 0.000000; 0.000000; 0.000000; 0.000000; 0.000000; 0.000000; 0000; 0003; 0.824956; 0.565126; 0.008922; -0.565056; 0.824296; 0.035321; 0.012606; -0.034180; 0.999336; 0.000000; 0.000000; 0.000000; 0; 0.000000; 0.000000; 0.000000; 0.000000; 31; 18284; 3141; 283; 0; 1.414214; 327; -1; 88; 72; 0; 51; 24; 0; 85; 24; 1; 149; 28; 1; 164; 31; 0; 23; 54; 0; 51; 54; 0; 85; 54; 0; 147; 45; 0; 149; 54; 0; 23; 90; 0; 51; 90; 0; 85; 90; 0; 119; 90; 0; 149; 90; 0; 23; 119; 0; 51; 119; 0; 85; 119; 0; 119; 119; 0; 149; 119; 0; 0; 0; 0; 0; 0; 0; 0; 0; 0; 0; 0; 0; 0; 0; 0; 0; 0; 0; 0; 0; 0; 0; 0; 0; 0; 0; 0; 0; 0; 0; 0; 0; 0; 0; 0; 0; 0.000000; 0; 0; 0; 0; 0; 0; 0.000000; 0; 0; 0; 0; 0; 0; 0.000000; 0; 0; 0; 0; 0; 0; 0.000000; 0.000000; 0.000000; 0.000000; 0.000000; 0.000000; 0.000000; 0.000000; 0.000000; 0.000000; 0.000000; 0.000000; 0.000000; 0.000000; 0.000000; 0.000000; 0.000000; 0.000000; 0.000000; 0.000000; 0.000000; 0.000000; 0.000000; 0.000000; 0.000000; 0.000000; 0.000000; 4961; 0; 1334101818.953794
0; 2408185876;191.757305; 2108; 1988; 3048; 1683; 1684; 1669; 1645; 1650; 12006; 0000; 0000; 1695; 0001; 0000; 0000; 3758; 0000; 9781; 0000; 0120; 40.558533; 1528;  42.348793;  42.704113; -984.139404;  0.060155;  0.237643; -0.051196; -1.184456; -0.005372;  0.000000;  2461.000000; -2484.000000;  0000; 0000; 0000; 0000; 0000; 000000; 000000; 000000;  3.227897; -0.682448;  0.000000; 0000; 0000; 0000; 0000; 0000; 290717696; 000; 000; 000; 000; 255; 255; 255; 255; 000; 000;  0.000000;  0.000000; 000; 000; 000;  0.000000; 000; 000; 000;  0.000000; 0000; 0000; 0000; 0000; 0215; 0.000000; 0000; 0215; 0.000000; 0.000000; 0.000000; 0.000000; 0.000000; 0000; 0.000000; 0.000000; 0000;  0.000000;  0.000000;  0.000000; 0; 0;  0.000000; 0.000000; 0.000000; 0.000000;  0.000000;  0.000000;  0.000000; 0; -0.012606; -0.034189; -0.600556;  0.000008;  0.000015; -0.000015;  215; 191.753329; 0072; -721.000000; -1958.000000; -34415.000000; 0215; 0.000000; 0.000000; 0.000000 ; 3141; 0.000000; 0.000000; 0.000000; 0.000000; 0.000000; 0.000000; 0.000000; 0.000000; 0.000000; 0.000000; 0.000000; 0.000000; 0000; 0003; 0.824898; 0.565211; 0.008928; -0.565141; 0.824239; 0.035300; 0.012593; -0.034165; 0.999337; 0.000000; 0.000000; 0.000000; 0; 0.000000; 0.000000; 0.000000; 0.000000; 31; 18284; 3141; 288; 0; 1.414214; 326; -1; 88; 72; 0; 51; 24; 0; 85; 24; 1; 149; 28; 1; 164; 31; 0; 23; 54; 0; 51; 54; 0; 85; 54; 0; 147; 45; 0; 149; 54; 0; 23; 90; 0; 51; 90; 0; 85; 90; 0; 119; 90; 0; 149; 90; 0; 23; 119; 0; 51; 119; 0; 85; 119; 0; 119; 119; 0; 149; 119; 0; 0; 0; 0; 0; 0; 0; 0; 0; 0; 0; 0; 0; 0; 0; 0; 0; 0; 0; 0; 0; 0; 0; 0; 0; 0; 0; 0; 0; 0; 0; 0; 0; 0; 0; 0; 0; 0.000000; 0; 0; 0; 0; 0; 0; 0.000000; 0; 0; 0; 0; 0; 0; 0.000000; 0; 0; 0; 0; 0; 0; 0.000000; 0.000000; 0.000000; 0.000000; 0.000000; 0.000000; 0.000000; 0.000000; 0.000000; 0.000000; 0.000000; 0.000000; 0.000000; 0.000000; 0.000000; 0.000000; 0.000000; 0.000000; 0.000000; 0.000000; 0.000000; 0.000000; 0.000000; 0.000000; 0.000000; 0.000000; 0.000000; 4964; 0; 1334101818.960755
0; 2408185940;191.762383; 2112; 1984; 3048; 1683; 1684; 1669; 1641; 1646; 12006; 0000; 0000; 1695; 0001; 0000; 0000; 3758; 0000; 9945; 0000; 0120; 40.558357; 1527;  45.117111;  45.435040; -983.605713;  0.036529;  0.142798; -0.050424; -1.184457; -0.005378;  0.000000;  2623.000000; -2644.000000;  0000; 0000; 0000; 0000; 0000; 000000; 000000; 000000;  3.227897; -0.682448;  0.000000; 0000; 0000; 0000; 0000; 0000; 290717696; 000; 000; 000; 000; 255; 255; 255; 255; 000; 000;  0.000000;  0.000000; 000; 000; 000;  0.000000; 000; 000; 000;  0.000000; 0000; 0000; 0000; 0000; 0215; 0.000000; 0000; 0215; 0.000000; 0.000000; 0.000000; 0.000000; 0.000000; 0000; 0.000000; 0.000000; 0000;  0.000000;  0.000000;  0.000000; 0; 0;  0.000000; 0.000000; 0.000000; 0.000000;  0.000000;  0.000000;  0.000000; 0; -0.012606; -0.034189; -0.600556;  0.000008;  0.000015; -0.000015;  215; 191.753329; 0072; -720.000000; -1957.000000; -34421.000000; 0215; 0.000000; 0.000000; 0.000000 ; 3141; 0.000000; 0.000000; 0.000000; 0.000000; 0.000000; 0.000000; 0.000000; 0.000000; 0.000000; 0.000000; 0.000000; 0.000000; 0000; 0003; 0.824840; 0.565295; 0.008939; -0.565226; 0.824181; 0.035289; 0.012581; -0.034160; 0.999337; 0.000000; 0.000000; 0.000000; 0; 0.000000; 0.000000; 0.000000; 0.000000; 31; 18284; 3141; 288; 0; 1.414214; 325; -1; 88; 72; 0; 51; 24; 0; 85; 24; 1; 149; 28; 1; 164; 31; 0; 23; 54; 0; 51; 54; 0; 85; 54; 0; 147; 45; 0; 149; 54; 0; 23; 90; 0; 51; 90; 0; 85; 90; 0; 119; 90; 0; 149; 90; 0; 23; 119; 0; 51; 119; 0; 85; 119; 0; 119; 119; 0; 149; 119; 0; 0; 0; 0; 0; 0; 0; 0; 0; 0; 0; 0; 0; 0; 0; 0; 0; 0; 0; 0; 0; 0; 0; 0; 0; 0; 0; 0; 0; 0; 0; 0; 0; 0; 0; 0; 0; 0.000000; 0; 0; 0; 0; 0; 0; 0.000000; 0; 0; 0; 0; 0; 0; 0.000000; 0; 0; 0; 0; 0; 0; 0.000000; 0.000000; 0.000000; 0.000000; 0.000000; 0.000000; 0.000000; 0.000000; 0.000000; 0.000000; 0.000000; 0.000000; 0.000000; 0.000000; 0.000000; 0.000000; 0.000000; 0.000000; 0.000000; 0.000000; 0.000000; 0.000000; 0.000000; 0.000000; 0.000000; 0.000000; 0.000000; 5036; 0; 1334101818.963746
0; 2408185940;191.767336; 2112; 1984; 3048; 1683; 1685; 1669; 1644; 1650; 12006; 0000; 0000; 1695; 0001; 0000; 0000; 3758; 0000; 10107; 0000; 0120; 40.558182; 1526;  47.619961;  47.506962; -983.514648;  0.094585;  0.118029; -0.051440; -1.184446; -0.005398;  0.000000;  2768.000000; -2765.000000;  0000; 0000; 0000; 0000; 0000; 000000; 000000; 000000;  3.227897; -0.682448;  0.000000; 0000; 0000; 0000; 0000; 0000; 290717696; 000; 000; 000; 000; 255; 255; 255; 255; 000; 000;  0.000000;  0.000000; 000; 000; 000;  0.000000; 000; 000; 000;  0.000000; 0000; 0000; 0000; 0000; 0215; 0.000000; 0000; 0215; 0.000000; 0.000000; 0.000000; 0.000000; 0.000000; 0000; 0.000000; 0.000000; 0000;  0.000000;  0.000000;  0.000000; 0; 0;  0.000000; 0.000000; 0.000000; 0.000000;  0.000000;  0.000000;  0.000000; 0; -0.012606; -0.034189; -0.600556;  0.000008;  0.000015; -0.000015;  215; 191.753329; 0072; -719.000000; -1957.000000; -34426.000000; 0215; 0.000000; 0.000000; 0.000000 ; 3142; 0.000000; 0.000000; 0.000000; 0.000000; 0.000000; 0.000000; 0.000000; 0.000000; 0.000000; 0.000000; 0.000000; 0.000000; 0000; 0003; 0.824782; 0.565379; 0.008955; -0.565311; 0.824124; 0.035275; 0.012564; -0.034156; 0.999338; 0.000000; 0.000000; 0.000000; 0; 0.000000; 0.000000; 0.000000; 0.000000; 31; 18328; 3142; 288; 0; 1.732051; 325; -1; 88; 72; 0; 51; 24; 0; 85; 24; 1; 149; 28; 1; 164; 31; 0; 23; 54; 0; 51; 54; 0; 85; 54; 0; 147; 45; 0; 149; 54; 0; 23; 90; 0; 51; 90; 0; 85; 90; 0; 119; 90; 0; 149; 90; 0; 23; 119; 0; 51; 119; 0; 85; 119; 0; 119; 119; 0; 149; 119; 0; 0; 0; 0; 0; 0; 0; 0; 0; 0; 0; 0; 0; 0; 0; 0; 0; 0; 0; 0; 0; 0; 0; 0; 0; 0; 0; 0; 0; 0; 0; 0; 0; 0; 0; 0; 0; 0.000000; 0; 0; 0; 0; 0; 0; 0.000000; 0; 0; 0; 0; 0; 0; 0.000000; 0; 0; 0; 0; 0; 0; 0.000000; 0.000000; 0.000000; 0.000000; 0.000000; 0.000000; 0.000000; 0.000000; 0.000000; 0.000000; 0.000000; 0.000000; 0.000000; 0.000000; 0.000000; 0.000000; 0.000000; 0.000000; 0.000000; 0.000000; 0.000000; 0.000000; 0.000000; 0.000000; 0.000000; 0.000000; 0.000000; 4912; 0; 1334101818.969207
0; 2408185940;191.772314; 2108; 1984; 3048; 1683; 1684; 1669; 1642; 1651; 12006; 0000; 0000; 1695; 0001; 0000; 0000; 3758; 0000; 10271; 0000; 0120; 40.558006; 1527;  44.565308;  46.964890; -983.704834;  0.078467;  0.082060; -0.051116; -1.184439; -0.005401;  0.000000;  2590.000000; -2733.000000;  0000; 0000; 0000; 0000; 0000; 000000; 000000; 000000;  3.227897; -0.682448;  0.000000; 0000; 0000; 0000; 0000; 0000; 290717696; 000; 000; 000; 000; 255; 255; 255; 255; 000; 000;  0.000000;  0.000000; 000; 000; 000;  0.000000; 000; 000; 000;  0.000000; 0000; 0000; 0000; 0000; 0215; 0.000000; 0000; 0215; 0.000000; 0.000000; 0.000000; 0.000000; 0.000000; 0000; 0.000000; 0.000000; 0000;  0.000000;  0.000000;  0.000000; 0; 0;  0.000000; 0.000000; 0.000000; 0.000000;  0.000000;  0.000000;  0.000000; 0; -0.012606; -0.034189; -0.600556;  0.000023;  0.000053; -0.000015;  215; 191.753329; 0072; -719.000000; -1957.000000; -34432.000000; 0215; 0.000000; 0.000000; 0.000000 ; 3142; 0.000000; 0.000000; 0.000000; 0.000000; 0.000000; 0.000000; 0.000000; 0.000000; 0.000000; 0.000000; 0.000000; 0.000000; 0000; 0003; 0.824725; 0.565464; 0.008960; -0.565395; 0.824066; 0.035268; 0.012559; -0.034152; 0.999338; 0.000000; 0.000000; 0.000000; 0; 0.000000; 0.000000; 0.000000; 0.000000; 31; 18328; 3142; 288; 0; 1.732051; 324; -1; 88; 72; 0; 51; 24; 0; 85; 24; 1; 149; 28; 1; 164; 31; 0; 23; 54; 0; 51; 54; 0; 85; 54; 0; 147; 45; 0; 149; 54; 0; 23; 90; 0; 51; 90; 0; 85; 90; 0; 119; 90; 0; 149; 90; 0; 23; 119; 0; 51; 119; 0; 85; 119; 0; 119; 119; 0; 149; 119; 0; 0; 0; 0; 0; 0; 0; 0; 0; 0; 0; 0; 0; 0; 0; 0; 0; 0; 0; 0; 0; 0; 0; 0; 0; 0; 0; 0; 0; 0; 0; 0; 0; 0; 0; 0; 0; 0.000000; 0; 0; 0; 0; 0; 0; 0.000000; 0; 0; 0; 0; 0; 0; 0.000000; 0; 0; 0; 0; 0; 0; 0.000000; 0.000000; 0.000000; 0.000000; 0.000000; 0.000000; 0.000000; 0.000000; 0.000000; 0.000000; 0.000000; 0.000000; 0.000000; 0.000000; 0.000000; 0.000000; 0.000000; 0.000000; 0.000000; 0.000000; 0.000000; 0.000000; 0.000000; 0.000000; 0.000000; 0.000000; 0.000000; 4937; 0; 1334101818.973641
0; 2408185876;191.777347; 2108; 1984; 3048; 1683; 1684; 1669; 1642; 1652; 12006; 0000; 0000; 1695; 0001; 0792; 1794; 0000; 0000; 10433; 0000; 0120; 40.557831; 1527;  42.050991;  46.621525; -983.857910;  0.065265; -0.006410; -0.051183; -1.184433; -0.005391;  0.000000;  2444.000000; -2713.000000;  0000; 0000; 0000; 0000; 0000; 000000; 000000; 000000;  3.227897; -0.682448;  0.000000; 0000; 0000; 0000; 0000; 0000; 290717696; 000; 000; 000; 000; 255; 255; 255; 255; 000; 000;  0.000000;  0.000000; 000; 000; 000;  0.000000; 000; 000; 000;  0.000000; 0000; 0000; 0000; 0000; 0215; 0.000000; 0000; 0215; 0.000000; 0.000000; 0.000000; 0.000000; 0.000000; 0000; 0.000000; 0.000000; 0000;  0.000000;  0.000000;  0.000000; 0; 0;  0.000000; 0.000000; 0.000000; 0.000000;  0.000000;  0.000000;  0.000000; 0; -0.012564; -0.034166; -0.600864;  0.000023;  0.000053; -0.000015;  215; 191.769951; 0072; -720.000000; -1957.000000; -34438.000000; 0215; 0.000000; 0.000000; 0.000000 ; 3142; 0.000000; 0.000000; 0.000000; 0.000000; 0.000000; 0.000000; 0.000000; 0.000000; 0.000000; 0.000000; 0.000000; 0.000000; 0000; 0003; 0.824667; 0.565548; 0.008954; -0.565479; 0.824008; 0.035269; 0.012568; -0.034148; 0.999338; 0.000000; 0.000000; 0.000000; 0; 0.000000; 0.000000; 0.000000; 0.000000; 31; 18328; 3142; 292; 0; 1.732051; 324; -1; 88; 72; 0; 51; 24; 0; 85; 24; 1; 149; 28; 1; 164; 31; 0; 23; 54; 0; 51; 54; 0; 85; 54; 0; 147; 45; 0; 149; 54; 0; 23; 90; 0; 51; 90; 0; 85; 90; 0; 119; 90; 0; 149; 90; 0; 23; 119; 0; 51; 119; 0; 85; 119; 0; 119; 119; 0; 149; 119; 0; 0; 0; 0; 0; 0; 0; 0; 0; 0; 0; 0; 0; 0; 0; 0; 0; 0; 0; 0; 0; 0; 0; 0; 0; 0; 0; 0; 0; 0; 0; 0; 0; 0; 0; 0; 0; 0.000000; 0; 0; 0; 0; 0; 0; 0.000000; 0; 0; 0; 0; 0; 0; 0.000000; 0; 0; 0; 0; 0; 0; 0.000000; 0.000000; 0.000000; 0.000000; 0.000000; 0.000000; 0.000000; 0.000000; 0.000000; 0.000000; 0.000000; 0.000000; 0.000000; 0.000000; 0.000000; 0.000000; 0.000000; 0.000000; 0.000000; 0.000000; 0.000000; 0.000000; 0.000000; 0.000000; 0.000000; 0.000000; 0.000000; 4992; 0; 1334101818.978795
0; 2408185876;191.782329; 2108; 1984; 3048; 1683; 1684; 1668; 1643; 1652; 12006; 0000; 0000; 1695; 0001; 0000; 0000; 3758; 0000; 10597; 0000; 0120; 40.559219; 1527;  42.724312;  46.781059; -983.787842;  0.080101;  0.133229;  0.027342; -1.184426; -0.005384;  0.000000;  2483.000000; -2722.000000;  0000; 0000; 0000; 0000; 0000; 000000; 000000; 000000;  3.227897; -0.682448;  0.000000; 0000; 0000; 0000; 0000; 0000; 290717696; 000; 000; 000; 000; 255; 255; 255; 255; 000; 000;  0.000000;  0.000000; 000; 000; 000;  0.000000; 000; 000; 000;  0.000000; 0000; 0000; 0000; 0000; 0215; 0.000000; 0000; 0215; 0.000000; 0.000000; 0.000000; 0.000000; 0.000000; 0000; 0.000000; 0.000000; 0000;  0.000000;  0.000000;  0.000000; 0; 0;  0.000000; 0.000000; 0.000000; 0.000000;  0.000000;  0.000000;  0.000000; 0; -0.012564; -0.034166; -0.600864;  0.000023;  0.000053; -0.000015;  215; 191.769951; 0072; -719.000000; -1956.000000; -34444.000000; 0215; 0.000000; 0.000000; 0.000000 ; 3142; 0.000000; 0.000000; 0.000000; 0.000000; 0.000000; 0.000000; 0.000000; 0.000000; 0.000000; 0.000000; 0.000000; 0.000000; 0000; 0003; 0.824613; 0.565627; 0.008959; -0.565558; 0.823954; 0.035261; 0.012563; -0.034144; 0.999338; 0.000000; 0.000000; 0.000000; 0; 0.000000; 0.000000; 0.000000; 0.000000; 31; 18328; 3142; 292; 0; 1.732051; 323; -1; 88; 72; 0; 51; 24; 0; 85; 24; 1; 149; 28; 1; 164; 31; 0; 23; 54; 0; 51; 54; 0; 85; 54; 0; 147; 45; 0; 149; 54; 0; 23; 90; 0; 51; 90; 0; 85; 90; 0; 119; 90; 0; 149; 90; 0; 23; 119; 0; 51; 119; 0; 85; 119; 0; 119; 119; 0; 149; 119; 0; 0; 0; 0; 0; 0; 0; 0; 0; 0; 0; 0; 0; 0; 0; 0; 0; 0; 0; 0; 0; 0; 0; 0; 0; 0; 0; 0; 0; 0; 0; 0; 0; 0; 0; 0; 0; 0.000000; 0; 0; 0; 0; 0; 0; 0.000000; 0; 0; 0; 0; 0; 0; 0.000000; 0; 0; 0; 0; 0; 0; 0.000000; 0.000000; 0.000000; 0.000000; 0.000000; 0.000000; 0.000000; 0.000000; 0.000000; 0.000000; 0.000000; 0.000000; 0.000000; 0.000000; 0.000000; 0.000000; 0.000000; 0.000000; 0.000000; 0.000000; 0.000000; 0.000000; 0.000000; 0.000000; 0.000000; 0.000000; 0.000000; 4942; 0; 1334101818.983718
0; 2408185876;191.787320; 2104; 1984; 3048; 1683; 1684; 1669; 1643; 1650; 12006; 0000; 0000; 1695; 0001; 0000; 0000; 3758; 0000; 10759; 0000; 0120; 40.559036; 1528;  40.700871;  46.699383; -983.932617;  0.070370;  0.270549;  0.000470; -1.184420; -0.005367;  0.000000;  2366.000000; -2717.000000;  0000; 0000; 0000; 0000; 0000; 000000; 000000; 000000;  3.227897; -0.682448;  0.000000; 0000; 0000; 0000; 0000; 0000; 290717696; 000; 000; 000; 000; 255; 255; 255; 255; 000; 000;  0.000000;  0.000000; 000; 000; 000;  0.000000; 000; 000; 000;  0.000000; 0000; 0000; 0000; 0000; 0215; 0.000000; 0000; 0215; 0.000000; 0.000000; 0.000000; 0.000000; 0.000000; 0000; 0.000000; 0.000000; 0000;  0.000000;  0.000000;  0.000000; 0; 0;  0.000000; 0.000000; 0.000000; 0.000000;  0.000000;  0.000000;  0.000000; 0; -0.012564; -0.034166; -0.600864;  0.000023;  0.000019; -0.000015;  215; 191.769951; 0072; -719.000000; -1956.000000; -34449.000000; 0215; 0.000000; 0.000000; 0.000000 ; 3142; 0.000000; 0.000000; 0.000000; 0.000000; 0.000000; 0.000000; 0.000000; 0.000000; 0.000000; 0.000000; 0.000000; 0.000000; 0000; 0003; 0.824557; 0.565708; 0.008969; -0.565639; 0.823899; 0.035251; 0.012552; -0.034140; 0.999338; 0.000000; 0.000000; 0.000000; 0; 0.000000; 0.000000; 0.000000; 0.000000; 31; 18328; 3142; 292; 0; 1.732051; 323; -1; 88; 72; 0; 51; 24; 0; 85; 24; 1; 149; 28; 1; 164; 31; 0; 23; 54; 0; 51; 54; 0; 85; 54; 0; 147; 45; 0; 149; 54; 0; 23; 90; 0; 51; 90; 0; 85; 90; 0; 119; 90; 0; 149; 90; 0; 23; 119; 0; 51; 119; 0; 85; 119; 0; 119; 119; 0; 149; 119; 0; 0; 0; 0; 0; 0; 0; 0; 0; 0; 0; 0; 0; 0; 0; 0; 0; 0; 0; 0; 0; 0; 0; 0; 0; 0; 0; 0; 0; 0; 0; 0; 0; 0; 0; 0; 0; 0.000000; 0; 0; 0; 0; 0; 0; 0.000000; 0; 0; 0; 0; 0; 0; 0.000000; 0; 0; 0; 0; 0; 0; 0.000000; 0.000000; 0.000000; 0.000000; 0.000000; 0.000000; 0.000000; 0.000000; 0.000000; 0.000000; 0.000000; 0.000000; 0.000000; 0.000000; 0.000000; 0.000000; 0.000000; 0.000000; 0.000000; 0.000000; 0.000000; 0.000000; 0.000000; 0.000000; 0.000000; 0.000000; 0.000000; 4949; 0; 1334101818.995693
0; 2408185876;191.792356; 2108; 1988; 3044; 1682; 1685; 1669; 1639; 1653; 12006; 0000; 0000; 1695; 0001; 0000; 0000; 3758; 0000; 10923; 0000; 0120; 40.558853; 1527;  40.500023;  44.290073; -981.629395; -0.071167;  0.023257;  0.035067; -1.184426; -0.005348;  0.000000;  2360.000000; -2583.000000;  0000; 0000; 0000; 0000; 0000; 000000; 000000; 000000;  3.227897; -0.682448;  0.000000; 0000; 0000; 0000; 0000; 0000; 290717696; 000; 000; 000; 000; 255; 255; 255; 255; 000; 000;  0.000000;  0.000000; 000; 000; 000;  0.000000; 000; 000; 000;  0.000000; 0000; 0000; 0000; 0000; 0215; 0.000000; 0000; 0215; 0.000000; 0.000000; 0.000000; 0.000000; 0.000000; 0000; 0.000000; 0.000000; 0000;  0.000000;  0.000000;  0.000000; 0; 0;  0.000000; 0.000000; 0.000000; 0.000000;  0.000000;  0.000000;  0.000000; 0; -0.012563; -0.034153; -0.601164;  0.000023;  0.000019; -0.000015;  215; 191.786581; 0072; -719.000000; -1956.000000; -34455.000000; 0215; 0.000000; 0.000000; 0.000000 ; 3142; 0.000000; 0.000000; 0.000000; 0.000000; 0.000000; 0.000000; 0.000000; 0.000000; 0.000000; 0.000000; 0.000000; 0.000000; 0000; 0003; 0.824503; 0.565786; 0.008964; -0.565718; 0.823845; 0.035258; 0.012563; -0.034141; 0.999338; 0.000000; 0.000000; 0.000000; 0; 0.000000; 0.000000; 0.000000; 0.000000; 31; 18328; 3142; 292; 0; 1.732051; 322; -1; 88; 72; 0; 51; 24; 0; 85; 24; 1; 149; 28; 1; 164; 31; 0; 23; 54; 0; 51; 54; 0; 85; 54; 0; 147; 45; 0; 149; 54; 0; 23; 90; 0; 51; 90; 0; 85; 90; 0; 119; 90; 0; 149; 90; 0; 23; 119; 0; 51; 119; 0; 85; 119; 0; 119; 119; 0; 149; 119; 0; 0; 0; 0; 0; 0; 0; 0; 0; 0; 0; 0; 0; 0; 0; 0; 0; 0; 0; 0; 0; 0; 0; 0; 0; 0; 0; 0; 0; 0; 0; 0; 0; 0; 0; 0; 0; 0.000000; 0; 0; 0; 0; 0; 0; 0.000000; 0; 0; 0; 0; 0; 0; 0.000000; 0; 0; 0; 0; 0; 0; 0.000000; 0.000000; 0.000000; 0.000000; 0.000000; 0.000000; 0.000000; 0.000000; 0.000000; 0.000000; 0.000000; 0.000000; 0.000000; 0.000000; 0.000000; 0.000000; 0.000000; 0.000000; 0.000000; 0.000000; 0.000000; 0.000000; 0.000000; 0.000000; 0.000000; 0.000000; 0.000000; 4998; 0; 1334101818.995821
0; 2408185876;191.797342; 2108; 1988; 3044; 1683; 1684; 1669; 1645; 1653; 12006; 0000; 0000; 1695; 0001; 0000; 0000; 3758; 0000; 11085; 0000; 0120; 40.558670; 1527;  43.243252;  41.894905; -979.208008; -0.014763;  0.153689; -0.010080; -1.184445; -0.005344;  0.000000;  2526.000000; -2449.000000;  0000; 0000; 0000; 0000; 0000; 000000; 000000; 000000;  3.227897; -0.682448;  0.000000; 0000; 0000; 0000; 0000; 0000; 290717696; 000; 000; 000; 000; 255; 255; 255; 255; 000; 000;  0.000000;  0.000000; 000; 000; 000;  0.000000; 000; 000; 000;  0.000000; 0000; 0000; 0000; 0000; 0215; 0.000000; 0000; 0215; 0.000000; 0.000000; 0.000000; 0.000000; 0.000000; 0000; 0.000000; 0.000000; 0000;  0.000000;  0.000000;  0.000000; 0; 0;  0.000000; 0.000000; 0.000000; 0.000000;  0.000000;  0.000000;  0.000000; 0; -0.012563; -0.034153; -0.601164;  0.000023;  0.000019; -0.000015;  215; 191.786581; 0072; -719.000000; -1956.000000; -34460.000000; 0215; 0.000000; 0.000000; 0.000000 ; 3142; 0.000000; 0.000000; 0.000000; 0.000000; 0.000000; 0.000000; 0.000000; 0.000000; 0.000000; 0.000000; 0.000000; 0.000000; 0000; 0003; 0.824447; 0.565868; 0.008969; -0.565799; 0.823789; 0.035244; 0.012555; -0.034132; 0.999338; 0.000000; 0.000000; 0.000000; 0; 0.000000; 0.000000; 0.000000; 0.000000; 31; 18328; 3142; 292; 0; 1.732051; 321; -1; 88; 72; 0; 51; 24; 0; 85; 24; 1; 149; 28; 1; 164; 31; 0; 23; 54; 0; 51; 54; 0; 85; 54; 0; 147; 45; 0; 149; 54; 0; 23; 90; 0; 51; 90; 0; 85; 90; 0; 119; 90; 0; 149; 90; 0; 23; 119; 0; 51; 119; 0; 85; 119; 0; 119; 119; 0; 149; 119; 0; 0; 0; 0; 0; 0; 0; 0; 0; 0; 0; 0; 0; 0; 0; 0; 0; 0; 0; 0; 0; 0; 0; 0; 0; 0; 0; 0; 0; 0; 0; 0; 0; 0; 0; 0; 0; 0.000000; 0; 0; 0; 0; 0; 0; 0.000000; 0; 0; 0; 0; 0; 0; 0.000000; 0; 0; 0; 0; 0; 0; 0.000000; 0.000000; 0.000000; 0.000000; 0.000000; 0.000000; 0.000000; 0.000000; 0.000000; 0.000000; 0.000000; 0.000000; 0.000000; 0.000000; 0.000000; 0.000000; 0.000000; 0.000000; 0.000000; 0.000000; 0.000000; 0.000000; 0.000000; 0.000000; 0.000000; 0.000000; 0.000000; 4946; 0; 1334101819.002607
0; 2408185876;191.802662; 2108; 1988; 3048; 1683; 1684; 1669; 1644; 1650; 12006; 0000; 0000; 1695; 0001; 0000; 0000; 3758; 0000; 11249; 0000; 0120; 40.558495; 1527;  43.179607;  42.522186; -982.189941; -0.081643;  0.007570; -0.092207; -1.184460; -0.005339;  0.000000;  2514.000000; -2478.000000;  0000; 0000; 0000; 0000; 0000; 000000; 000000; 000000;  3.227897; -0.682448;  0.000000; 0000; 0000; 0000; 0000; 0000; 290717696; 000; 000; 000; 000; 255; 255; 255; 255; 000; 000;  0.000000;  0.000000; 000; 000; 000;  0.000000; 000; 000; 000;  0.000000; 0000; 0000; 0000; 0000; 0215; 0.000000; 0000; 0215; 0.000000; 0.000000; 0.000000; 0.000000; 0.000000; 0000; 0.000000; 0.000000; 0000;  0.000000;  0.000000;  0.000000; 0; 0;  0.000000; 0.000000; 0.000000; 0.000000;  0.000000;  0.000000;  0.000000; 0; -0.012563; -0.034153; -0.601164;  0.000023;  0.000019; -0.000015;  215; 191.786581; 0072; -719.000000; -1955.000000; -34466.000000; 0215; 0.000000; 0.000000; 0.000000 ; 3142; 0.000000; 0.000000; 0.000000; 0.000000; 0.000000; 0.000000; 0.000000; 0.000000; 0.000000; 0.000000; 0.000000; 0.000000; 0000; 0003; 0.824387; 0.565955; 0.008967; -0.565887; 0.823729; 0.035244; 0.012561; -0.034129; 0.999339; 0.000000; 0.000000; 0.000000; 0; 0.000000; 0.000000; 0.000000; 0.000000; 31; 18328; 3142; 294; 0; 1.732051; 321; -1; 88; 72; 0; 51; 24; 0; 85; 24; 1; 149; 28; 1; 164; 31; 0; 23; 54; 0; 51; 54; 0; 85; 54; 0; 147; 45; 0; 149; 54; 0; 23; 90; 0; 51; 90; 0; 85; 90; 0; 119; 90; 0; 149; 90; 0; 23; 119; 0; 51; 119; 0; 85; 119; 0; 119; 119; 0; 149; 119; 0; 0; 0; 0; 0; 0; 0; 0; 0; 0; 0; 0; 0; 0; 0; 0; 0; 0; 0; 0; 0; 0; 0; 0; 0; 0; 0; 0; 0; 0; 0; 0; 0; 0; 0; 0; 0; 0.000000; 0; 0; 0; 0; 0; 0; 0.000000; 0; 0; 0; 0; 0; 0; 0.000000; 0; 0; 0; 0; 0; 0; 0.000000; 0.000000; 0.000000; 0.000000; 0.000000; 0.000000; 0.000000; 0.000000; 0.000000; 0.000000; 0.000000; 0.000000; 0.000000; 0.000000; 0.000000; 0.000000; 0.000000; 0.000000; 0.000000; 0.000000; 0.000000; 0.000000; 0.000000; 0.000000; 0.000000; 0.000000; 0.000000; 5279; 0; 1334101819.009533
0; 2408185876;191.807356; 2108; 1988; 3048; 1682; 1684; 1669; 1644; 1650; 12006; 0000; 0000; 1695; 0001; 0000; 0000; 3758; 0000; 11411; 0000; 0120; 40.558319; 1527;  42.908955;  42.850464; -984.850830; -0.143327;  0.078379; -0.042328; -1.184475; -0.005333;  0.000000;  2492.000000; -2491.000000;  0000; 0000; 0000; 0000; 0000; 000000; 000000; 000000;  3.227897; -0.682448;  0.000000; 0000; 0000; 0000; 0000; 0000; 290717696; 000; 000; 000; 000; 255; 255; 255; 255; 000; 000;  0.000000;  0.000000; 000; 000; 000;  0.000000; 000; 000; 000;  0.000000; 0000; 0000; 0000; 0000; 0215; 0.000000; 0000; 0215; 0.000000; 0.000000; 0.000000; 0.000000; 0.000000; 0000; 0.000000; 0.000000; 0000;  0.000000;  0.000000;  0.000000; 0; 0;  0.000000; 0.000000; 0.000000; 0.000000;  0.000000;  0.000000;  0.000000; 0; -0.012561; -0.034138; -0.601562;  0.000005;  0.000042;  0.000004;  215; 191.803207; 0072; -719.000000; -1956.000000; -34472.000000; 0215; 0.000000; 0.000000; 0.000000 ; 3142; 0.000000; 0.000000; 0.000000; 0.000000; 0.000000; 0.000000; 0.000000; 0.000000; 0.000000; 0.000000; 0.000000; 0.000000; 0000; 0003; 0.824330; 0.566039; 0.008972; -0.565971; 0.823672; 0.035246; 0.012560; -0.034133; 0.999338; 0.000000; 0.000000; 0.000000; 0; 0.000000; 0.000000; 0.000000; 0.000000; 31; 18328; 3142; 294; 0; 1.732051; 320; -1; 88; 72; 0; 51; 24; 0; 85; 24; 1; 149; 28; 1; 164; 31; 0; 23; 54; 0; 51; 54; 0; 85; 54; 0; 147; 45; 0; 149; 54; 0; 23; 90; 0; 51; 90; 0; 85; 90; 0; 119; 90; 0; 149; 90; 0; 23; 119; 0; 51; 119; 0; 85; 119; 0; 119; 119; 0; 149; 119; 0; 0; 0; 0; 0; 0; 0; 0; 0; 0; 0; 0; 0; 0; 0; 0; 0; 0; 0; 0; 0; 0; 0; 0; 0; 0; 0; 0; 0; 0; 0; 0; 0; 0; 0; 0; 0; 0.000000; 0; 0; 0; 0; 0; 0; 0.000000; 0; 0; 0; 0; 0; 0; 0.000000; 0; 0; 0; 0; 0; 0; 0.000000; 0.000000; 0.000000; 0.000000; 0.000000; 0.000000; 0.000000; 0.000000; 0.000000; 0.000000; 0.000000; 0.000000; 0.000000; 0.000000; 0.000000; 0.000000; 0.000000; 0.000000; 0.000000; 0.000000; 0.000000; 0.000000; 0.000000; 0.000000; 0.000000; 0.000000; 0.000000; 4653; 0; 1334101819.009717
0; 2408185876;191.812363; 2108; 1988; 3048; 1682; 1684; 1669; 1640; 1650; 12006; 0000; 0000; 1695; 0001; 0000; 0000; 3758; 0000; 11575; 0000; 0120; 40.558144; 1527;  43.060024;  42.627232; -984.085205; -0.085785;  0.284610; -0.079717; -1.184490; -0.005329;  0.000000;  2503.000000; -2480.000000;  0000; 0000; 0000; 0000; 0000; 000000; 000000; 000000;  3.227897; -0.682448;  0.000000; 0000; 0000; 0000; 0000; 0000; 290717696; 000; 000; 000; 000; 255; 255; 255; 255; 000; 000;  0.000000;  0.000000; 000; 000; 000;  0.000000; 000; 000; 000;  0.000000; 0000; 0000; 0000; 0000; 0215; 0.000000; 0000; 0215; 0.000000; 0.000000; 0.000000; 0.000000; 0.000000; 0000; 0.000000; 0.000000; 0000;  0.000000;  0.000000;  0.000000; 0; 0;  0.000000; 0.000000; 0.000000; 0.000000;  0.000000;  0.000000;  0.000000; 0; -0.012561; -0.034138; -0.601562;  0.000005;  0.000042;  0.000004;  215; 191.803207; 0072; -718.000000; -1956.000000; -34478.000000; 0215; 0.000000; 0.000000; 0.000000 ; 3142; 0.000000; 0.000000; 0.000000; 0.000000; 0.000000; 0.000000; 0.000000; 0.000000; 0.000000; 0.000000; 0.000000; 0.000000; 0000; 0003; 0.824270; 0.566125; 0.008990; -0.566058; 0.823612; 0.035233; 0.012542; -0.034131; 0.999339; 0.000000; 0.000000; 0.000000; 0; 0.000000; 0.000000; 0.000000; 0.000000; 31; 18328; 3142; 294; 0; 1.732051; 320; -1; 88; 72; 0; 51; 24; 0; 85; 24; 1; 149; 28; 1; 164; 31; 0; 23; 54; 0; 51; 54; 0; 85; 54; 0; 147; 45; 0; 149; 54; 0; 23; 90; 0; 51; 90; 0; 85; 90; 0; 119; 90; 0; 149; 90; 0; 23; 119; 0; 51; 119; 0; 85; 119; 0; 119; 119; 0; 149; 119; 0; 0; 0; 0; 0; 0; 0; 0; 0; 0; 0; 0; 0; 0; 0; 0; 0; 0; 0; 0; 0; 0; 0; 0; 0; 0; 0; 0; 0; 0; 0; 0; 0; 0; 0; 0; 0; 0.000000; 0; 0; 0; 0; 0; 0; 0.000000; 0; 0; 0; 0; 0; 0; 0.000000; 0; 0; 0; 0; 0; 0; 0.000000; 0.000000; 0.000000; 0.000000; 0.000000; 0.000000; 0.000000; 0.000000; 0.000000; 0.000000; 0.000000; 0.000000; 0.000000; 0.000000; 0.000000; 0.000000; 0.000000; 0.000000; 0.000000; 0.000000; 0.000000; 0.000000; 0.000000; 0.000000; 0.000000; 0.000000; 0.000000; 4966; 0; 1334101819.015604
0; 2408185876;191.817370; 2112; 1988; 3048; 1682; 1685; 1669; 1640; 1650; 12006; 0000; 0000; 1695; 0001; 0792; 1794; 0000; 0000; 11737; 0000; 0120; 40.557968; 1527;  45.295864;  42.606068; -983.687256; -0.331500;  0.039320; -0.039424; -1.184506; -0.005336;  0.000000;  2633.000000; -2480.000000;  0000; 0000; 0000; 0000; 0000; 000000; 000000; 000000;  3.227897; -0.682448;  0.000000; 0000; 0000; 0000; 0000; 0000; 290717696; 000; 000; 000; 000; 255; 255; 255; 255; 000; 000;  0.000000;  0.000000; 000; 000; 000;  0.000000; 000; 000; 000;  0.000000; 0000; 0000; 0000; 0000; 0215; 0.000000; 0000; 0215; 0.000000; 0.000000; 0.000000; 0.000000; 0.000000; 0000; 0.000000; 0.000000; 0000;  0.000000;  0.000000;  0.000000; 0; 0;  0.000000; 0.000000; 0.000000; 0.000000;  0.000000;  0.000000;  0.000000; 0; -0.012561; -0.034138; -0.601562;  0.000005;  0.000042;  0.000004;  215; 191.803207; 0072; -718.000000; -1957.000000; -34484.000000; 0215; 0.000000; 0.000000; 0.000000 ; 3143; 0.000000; 0.000000; 0.000000; 0.000000; 0.000000; 0.000000; 0.000000; 0.000000; 0.000000; 0.000000; 0.000000; 0.000000; 0000; 0003; 0.824213; 0.566209; 0.009008; -0.566141; 0.823554; 0.035246; 0.012538; -0.034150; 0.999338; 0.000000; 0.000000; 0.000000; 0; 0.000000; 0.000000; 0.000000; 0.000000; 31; 18388; 3143; 294; 0; 1.732051; 319; -1; 88; 72; 0; 51; 24; 0; 85; 24; 1; 149; 28; 1; 164; 31; 0; 23; 54; 0; 51; 54; 0; 85; 54; 0; 147; 45; 0; 149; 54; 0; 23; 90; 0; 51; 90; 0; 85; 90; 0; 119; 90; 0; 149; 90; 0; 23; 119; 0; 51; 119; 0; 85; 119; 0; 119; 119; 0; 149; 119; 0; 0; 0; 0; 0; 0; 0; 0; 0; 0; 0; 0; 0; 0; 0; 0; 0; 0; 0; 0; 0; 0; 0; 0; 0; 0; 0; 0; 0; 0; 0; 0; 0; 0; 0; 0; 0; 0.000000; 0; 0; 0; 0; 0; 0; 0.000000; 0; 0; 0; 0; 0; 0; 0.000000; 0; 0; 0; 0; 0; 0; 0.000000; 0.000000; 0.000000; 0.000000; 0.000000; 0.000000; 0.000000; 0.000000; 0.000000; 0.000000; 0.000000; 0.000000; 0.000000; 0.000000; 0.000000; 0.000000; 0.000000; 0.000000; 0.000000; 0.000000; 0.000000; 0.000000; 0.000000; 0.000000; 0.000000; 0.000000; 0.000000; 4965; 0; 1334101819.019231
0; 2408185876;191.822370; 2108; 1984; 3048; 1682; 1685; 1669; 1641; 1650; 12006; 0000; 0000; 1695; 0001; 0000; 0000; 3758; 0000; 11901; 0000; 0120; 40.557793; 1527;  45.244968;  44.899349; -983.756836; -0.338202; -0.002530; -0.033165; -1.184510; -0.005342;  0.000000;  2630.000000; -2613.000000;  0000; 0000; 0000; 0000; 0000; 000000; 000000; 000000;  3.227897; -0.682448;  0.000000; 0000; 0000; 0000; 0000; 0000; 290717696; 000; 000; 000; 000; 255; 255; 255; 255; 000; 000;  0.000000;  0.000000; 000; 000; 000;  0.000000; 000; 000; 000;  0.000000; 0000; 0000; 0000; 0000; 0215; 0.000000; 0000; 0215; 0.000000; 0.000000; 0.000000; 0.000000; 0.000000; 0000; 0.000000; 0.000000; 0000;  0.000000;  0.000000;  0.000000; 0; 0;  0.000000; 0.000000; 0.000000; 0.000000;  0.000000;  0.000000;  0.000000; 0; -0.012561; -0.034138; -0.601562; -0.000032;  0.000038; -0.000022;  215; 191.803207; 0072; -718.000000; -1958.000000; -34490.000000; 0215; 0.000000; 0.000000; 0.000000 ; 3143; 0.000000; 0.000000; 0.000000; 0.000000; 0.000000; 0.000000; 0.000000; 0.000000; 0.000000; 0.000000; 0.000000; 0.000000; 0000; 0003; 0.824156; 0.566291; 0.009026; -0.566224; 0.823496; 0.035267; 0.012538; -0.034177; 0.999337; 0.000000; 0.000000; 0.000000; 0; 0.000000; 0.000000; 0.000000; 0.000000; 31; 18388; 3143; 295; 0; 1.732051; 318; -1; 88; 72; 0; 51; 24; 0; 85; 24; 1; 149; 28; 1; 164; 31; 0; 23; 54; 0; 51; 54; 0; 85; 54; 0; 147; 45; 0; 149; 54; 0; 23; 90; 0; 51; 90; 0; 85; 90; 0; 119; 90; 0; 149; 90; 0; 23; 119; 0; 51; 119; 0; 85; 119; 0; 119; 119; 0; 149; 119; 0; 0; 0; 0; 0; 0; 0; 0; 0; 0; 0; 0; 0; 0; 0; 0; 0; 0; 0; 0; 0; 0; 0; 0; 0; 0; 0; 0; 0; 0; 0; 0; 0; 0; 0; 0; 0; 0.000000; 0; 0; 0; 0; 0; 0; 0.000000; 0; 0; 0; 0; 0; 0; 0.000000; 0; 0; 0; 0; 0; 0; 0.000000; 0.000000; 0.000000; 0.000000; 0.000000; 0.000000; 0.000000; 0.000000; 0.000000; 0.000000; 0.000000; 0.000000; 0.000000; 0.000000; 0.000000; 0.000000; 0.000000; 0.000000; 0.000000; 0.000000; 0.000000; 0.000000; 0.000000; 0.000000; 0.000000; 0.000000; 0.000000; 4961; 0; 1334101819.023873
0; 2408185876;191.827410; 2112; 1988; 3048; 1682; 1684; 1669; 1641; 1649; 12006; 0000; 0000; 1695; 0001; 0000; 0000; 3758; 0000; 12063; 0000; 0120; 40.557617; 1527;  44.691124;  44.825676; -983.764160; -0.336056; -0.079721; -0.059997; -1.184514; -0.005346;  0.000000;  2598.000000; -2608.000000;  0000; 0000; 0000; 0000; 0000; 000000; 000000; 000000;  3.227897; -0.682448;  0.000000; 0000; 0000; 0000; 0000; 0000; 290717696; 000; 000; 000; 000; 255; 255; 255; 255; 000; 000;  0.000000;  0.000000; 000; 000; 000;  0.000000; 000; 000; 000;  0.000000; 0000; 0000; 0000; 0000; 0215; 0.000000; 0000; 0215; 0.000000; 0.000000; 0.000000; 0.000000; 0.000000; 0000; 0.000000; 0.000000; 0000;  0.000000;  0.000000;  0.000000; 0; 0;  0.000000; 0.000000; 0.000000; 0.000000;  0.000000;  0.000000;  0.000000; 0; -0.012538; -0.034159; -0.601871; -0.000032;  0.000038; -0.000022;  215; 191.820787; 0072; -718.000000; -1960.000000; -34496.000000; 0215; 0.000000; 0.000000; 0.000000 ; 3143; 0.000000; 0.000000; 0.000000; 0.000000; 0.000000; 0.000000; 0.000000; 0.000000; 0.000000; 0.000000; 0.000000; 0.000000; 0000; 0003; 0.824098; 0.566376; 0.009038; -0.566309; 0.823437; 0.035292; 0.012547; -0.034202; 0.999336; 0.000000; 0.000000; 0.000000; 0; 0.000000; 0.000000; 0.000000; 0.000000; 31; 18388; 3143; 295; 0; 1.732051; 318; -1; 88; 72; 0; 51; 24; 0; 85; 24; 1; 149; 28; 1; 164; 31; 0; 23; 54; 0; 51; 54; 0; 85; 54; 0; 147; 45; 0; 149; 54; 0; 23; 90; 0; 51; 90; 0; 85; 90; 0; 119; 90; 0; 149; 90; 0; 23; 119; 0; 51; 119; 0; 85; 119; 0; 119; 119; 0; 149; 119; 0; 0; 0; 0; 0; 0; 0; 0; 0; 0; 0; 0; 0; 0; 0; 0; 0; 0; 0; 0; 0; 0; 0; 0; 0; 0; 0; 0; 0; 0; 0; 0; 0; 0; 0; 0; 0; 0.000000; 0; 0; 0; 0; 0; 0; 0.000000; 0; 0; 0; 0; 0; 0; 0.000000; 0; 0; 0; 0; 0; 0; 0.000000; 0.000000; 0.000000; 0.000000; 0.000000; 0.000000; 0.000000; 0.000000; 0.000000; 0.000000; 0.000000; 0.000000; 0.000000; 0.000000; 0.000000; 0.000000; 0.000000; 0.000000; 0.000000; 0.000000; 0.000000; 0.000000; 0.000000; 0.000000; 0.000000; 0.000000; 0.000000; 5002; 0; 1334101819.031001
0; 2408185876;191.833566; 2112; 1988; 3048; 1683; 1685; 1669; 1642; 1651; 12006; 0000; 0000; 1695; 0001; 0000; 0000; 3758; 0000; 12227; 0000; 0120; 40.557442; 1527;  47.263535;  41.872639; -983.723633; -0.222588; -0.222399; -0.056454; -1.184533; -0.005364;  0.000000;  2748.000000; -2437.000000;  0000; 0000; 0000; 0000; 0000; 000000; 000000; 000000;  3.227897; -0.682448;  0.000000; 0000; 0000; 0000; 0000; 0000; 290717696; 000; 000; 000; 000; 255; 255; 255; 255; 000; 000;  0.000000;  0.000000; 000; 000; 000;  0.000000; 000; 000; 000;  0.000000; 0000; 0000; 0000; 0000; 0215; 0.000000; 0000; 0215; 0.000000; 0.000000; 0.000000; 0.000000; 0.000000; 0000; 0.000000; 0.000000; 0000;  0.000000;  0.000000;  0.000000; 0; 0;  0.000000; 0.000000; 0.000000; 0.000000;  0.000000;  0.000000;  0.000000; 0; -0.012538; -0.034159; -0.601871; -0.000032;  0.000038; -0.000022;  215; 191.820787; 0072; -719.000000; -1960.000000; -34502.000000; 0215; 0.000000; 0.000000; 0.000000 ; 3143; 0.000000; 0.000000; 0.000000; 0.000000; 0.000000; 0.000000; 0.000000; 0.000000; 0.000000; 0.000000; 0.000000; 0.000000; 0000; 0003; 0.824039; 0.566460; 0.009035; -0.566393; 0.823379; 0.035305; 0.012560; -0.034210; 0.999336; 0.000000; 0.000000; 0.000000; 0; 0.000000; 0.000000; 0.000000; 0.000000; 31; 18388; 3143; 295; 0; 1.732051; 317; -1; 88; 72; 0; 51; 24; 0; 85; 24; 1; 149; 28; 1; 164; 31; 0; 23; 54; 0; 51; 54; 0; 85; 54; 0; 147; 45; 0; 149; 54; 0; 23; 90; 0; 51; 90; 0; 85; 90; 0; 119; 90; 0; 149; 90; 0; 23; 119; 0; 51; 119; 0; 85; 119; 0; 119; 119; 0; 149; 119; 0; 0; 0; 0; 0; 0; 0; 0; 0; 0; 0; 0; 0; 0; 0; 0; 0; 0; 0; 0; 0; 0; 0; 0; 0; 0; 0; 0; 0; 0; 0; 0; 0; 0; 0; 0; 0; 0.000000; 0; 0; 0; 0; 0; 0; 0.000000; 0; 0; 0; 0; 0; 0; 0.000000; 0; 0; 0; 0; 0; 0; 0.000000; 0.000000; 0.000000; 0.000000; 0.000000; 0.000000; 0.000000; 0.000000; 0.000000; 0.000000; 0.000000; 0.000000; 0.000000; 0.000000; 0.000000; 0.000000; 0.000000; 0.000000; 0.000000; 0.000000; 0.000000; 0.000000; 0.000000; 0.000000; 0.000000; 0.000000; 0.000000; 6117; 0; 1334101819.034779
0; 2408185876;191.837371; 2112; 1988; 3052; 1683; 1685; 1669; 1640; 1651; 12006; 0000; 0000; 1695; 0001; 0000; 0000; 3758; 0000; 12390; 0000; 0120; 40.558830; 1527;  47.322830;  42.150898; -986.097656; -0.030569; -0.034193; -0.048345; -1.184552; -0.005382;  0.000000;  2745.000000; -2447.000000;  0000; 0000; 0000; 0000; 0000; 000000; 000000; 000000;  3.227897; -0.682448;  0.000000; 0000; 0000; 0000; 0000; 0000; 290717696; 000; 000; 000; 000; 255; 255; 255; 255; 000; 000;  0.000000;  0.000000; 000; 000; 000;  0.000000; 000; 000; 000;  0.000000; 0000; 0000; 0000; 0000; 0215; 0.000000; 0000; 0215; 0.000000; 0.000000; 0.000000; 0.000000; 0.000000; 0000; 0.000000; 0.000000; 0000;  0.000000;  0.000000;  0.000000; 0; 0;  0.000000; 0.000000; 0.000000; 0.000000;  0.000000;  0.000000;  0.000000; 0; -0.012538; -0.034159; -0.601871; -0.000092; -0.000004; -0.000012;  215; 191.820787; 0072; -719.000000; -1960.000000; -34508.000000; 0215; 0.000000; 0.000000; 0.000000 ; 3143; 0.000000; 0.000000; 0.000000; 0.000000; 0.000000; 0.000000; 0.000000; 0.000000; 0.000000; 0.000000; 0.000000; 0.000000; 0000; 0003; 0.823982; 0.566544; 0.009036; -0.566477; 0.823321; 0.035296; 0.012557; -0.034202; 0.999336; 0.000000; 0.000000; 0.000000; 0; 0.000000; 0.000000; 0.000000; 0.000000; 31; 18388; 3143; 295; 0; 1.732051; 317; -1; 88; 72; 0; 51; 24; 0; 85; 24; 1; 149; 28; 1; 164; 31; 0; 23; 54; 0; 51; 54; 0; 85; 54; 0; 147; 45; 0; 149; 54; 0; 23; 90; 0; 51; 90; 0; 85; 90; 0; 119; 90; 0; 149; 90; 0; 23; 119; 0; 51; 119; 0; 85; 119; 0; 119; 119; 0; 149; 119; 0; 0; 0; 0; 0; 0; 0; 0; 0; 0; 0; 0; 0; 0; 0; 0; 0; 0; 0; 0; 0; 0; 0; 0; 0; 0; 0; 0; 0; 0; 0; 0; 0; 0; 0; 0; 0; 0.000000; 0; 0; 0; 0; 0; 0; 0.000000; 0; 0; 0; 0; 0; 0; 0.000000; 0; 0; 0; 0; 0; 0; 0.000000; 0.000000; 0.000000; 0.000000; 0.000000; 0.000000; 0.000000; 0.000000; 0.000000; 0.000000; 0.000000; 0.000000; 0.000000; 0.000000; 0.000000; 0.000000; 0.000000; 0.000000; 0.000000; 0.000000; 0.000000; 0.000000; 0.000000; 0.000000; 0.000000; 0.000000; 0.000000; 3767; 0; 1334101819.038629
0; 2408185876;191.842402; 2112; 1984; 3052; 1682; 1684; 1669; 1639; 1651; 12006; 0000; 0000; 1695; 0001; 0000; 0000; 3758; 0000; 12553; 0000; 0120; 40.558655; 1527;  46.966602;  44.986820; -988.375732; -0.044338;  0.011134; -0.052403; -1.184556; -0.005398;  0.000000;  2717.000000; -2606.000000;  0000; 0000; 0000; 0000; 0000; 000000; 000000; 000000;  3.227897; -0.682448;  0.000000; 0000; 0000; 0000; 0000; 0000; 290717696; 000; 000; 000; 000; 255; 255; 255; 255; 000; 000;  0.000000;  0.000000; 000; 000; 000;  0.000000; 000; 000; 000;  0.000000; 0000; 0000; 0000; 0000; 0215; 0.000000; 0000; 0215; 0.000000; 0.000000; 0.000000; 0.000000; 0.000000; 0000; 0.000000; 0.000000; 0000;  0.000000;  0.000000;  0.000000; 0; 0;  0.000000; 0.000000; 0.000000; 0.000000;  0.000000;  0.000000;  0.000000; 0; -0.012561; -0.034220; -0.602177; -0.000092; -0.000004; -0.000012;  215; 191.836442; 0072; -719.000000; -1960.000000; -34513.000000; 0215; 0.000000; 0.000000; 0.000000 ; 3143; 0.000000; 0.000000; 0.000000; 0.000000; 0.000000; 0.000000; 0.000000; 0.000000; 0.000000; 0.000000; 0.000000; 0.000000; 0000; 0003; 0.823924; 0.566628; 0.009045; -0.566562; 0.823263; 0.035292; 0.012551; -0.034202; 0.999336; 0.000000; 0.000000; 0.000000; 0; 0.000000; 0.000000; 0.000000; 0.000000; 31; 18388; 3143; 296; 0; 1.732051; 316; -1; 88; 72; 0; 51; 24; 0; 85; 24; 1; 149; 28; 1; 164; 31; 0; 23; 54; 0; 51; 54; 0; 85; 54; 0; 147; 45; 0; 149; 54; 0; 23; 90; 0; 51; 90; 0; 85; 90; 0; 119; 90; 0; 149; 90; 0; 23; 119; 0; 51; 119; 0; 85; 119; 0; 119; 119; 0; 149; 119; 0; 0; 0; 0; 0; 0; 0; 0; 0; 0; 0; 0; 0; 0; 0; 0; 0; 0; 0; 0; 0; 0; 0; 0; 0; 0; 0; 0; 0; 0; 0; 0; 0; 0; 0; 0; 0; 0.000000; 0; 0; 0; 0; 0; 0; 0.000000; 0; 0; 0; 0; 0; 0; 0.000000; 0; 0; 0; 0; 0; 0; 0.000000; 0.000000; 0.000000; 0.000000; 0.000000; 0.000000; 0.000000; 0.000000; 0.000000; 0.000000; 0.000000; 0.000000; 0.000000; 0.000000; 0.000000; 0.000000; 0.000000; 0.000000; 0.000000; 0.000000; 0.000000; 0.000000; 0.000000; 0.000000; 0.000000; 0.000000; 0.000000; 4992; 0; 1334101819.043690
0; 2408185876;191.847360; 2108; 1988; 3052; 1683; 1684; 1669; 1641; 1649; 12006; 0000; 0000; 1695; 0001; 0000; 0000; 3758; 0000; 12715; 0000; 0120; 40.558479; 1527;  44.937580;  44.749149; -987.912109;  0.031310; -0.012073; -0.049454; -1.184562; -0.005404;  0.000000;  2601.000000; -2593.000000;  0000; 0000; 0000; 0000; 0000; 000000; 000000; 000000;  3.227897; -0.682448;  0.000000; 0000; 0000; 0000; 0000; 0000; 290717696; 000; 000; 000; 000; 255; 255; 255; 255; 000; 000;  0.000000;  0.000000; 000; 000; 000;  0.000000; 000; 000; 000;  0.000000; 0000; 0000; 0000; 0000; 0215; 0.000000; 0000; 0215; 0.000000; 0.000000; 0.000000; 0.000000; 0.000000; 0000; 0.000000; 0.000000; 0000;  0.000000;  0.000000;  0.000000; 0; 0;  0.000000; 0.000000; 0.000000; 0.000000;  0.000000;  0.000000;  0.000000; 0; -0.012561; -0.034220; -0.602177; -0.000092; -0.000004; -0.000012;  215; 191.836442; 0073; -719.000000; -1959.000000; -34519.000000; 0215; 0.000000; 0.000000; 0.000000 ; 3143; 0.000000; 0.000000; 0.000000; 0.000000; 0.000000; 0.000000; 0.000000; 0.000000; 0.000000; 0.000000; 0.000000; 0.000000; 0000; 0003; 0.823866; 0.566713; 0.009043; -0.566646; 0.823206; 0.035286; 0.012553; -0.034195; 0.999336; 0.000000; 0.000000; 0.000000; 0; 0.000000; 0.000000; 0.000000; 0.000000; 31; 18388; 3143; 296; 0; 1.414214; 315; -1; 88; 72; 0; 51; 24; 0; 85; 24; 1; 149; 28; 1; 164; 31; 0; 23; 54; 0; 51; 54; 0; 85; 54; 0; 147; 45; 0; 149; 54; 0; 23; 90; 0; 51; 90; 0; 85; 90; 0; 119; 90; 0; 149; 90; 0; 23; 119; 0; 51; 119; 0; 85; 119; 0; 119; 119; 0; 149; 119; 0; 0; 0; 0; 0; 0; 0; 0; 0; 0; 0; 0; 0; 0; 0; 0; 0; 0; 0; 0; 0; 0; 0; 0; 0; 0; 0; 0; 0; 0; 0; 0; 0; 0; 0; 0; 0; 0.000000; 0; 0; 0; 0; 0; 0; 0.000000; 0; 0; 0; 0; 0; 0; 0.000000; 0; 0; 0; 0; 0; 0; 0.000000; 0.000000; 0.000000; 0.000000; 0.000000; 0.000000; 0.000000; 0.000000; 0.000000; 0.000000; 0.000000; 0.000000; 0.000000; 0.000000; 0.000000; 0.000000; 0.000000; 0.000000; 0.000000; 0.000000; 0.000000; 0.000000; 0.000000; 0.000000; 0.000000; 0.000000; 0.000000; 4920; 0; 1334101819.048590
0; 2408185876;191.852377; 2108; 1988; 3048; 1682; 1684; 1669; 1640; 1647; 12006; 0000; 0000; 1695; 0001; 0000; 0000; 3758; 0000; 12879; 0000; 0120; 40.559868; 1527;  42.571926;  41.993206; -985.454773; -0.222853;  0.220441; -0.050160; -1.184581; -0.005396;  0.000000;  2471.000000; -2440.000000;  0000; 0000; 0000; 0000; 0000; 000000; 000000; 000000;  3.227897; -0.682448;  0.000000; 0000; 0000; 0000; 0000; 0000; 290717696; 000; 000; 000; 000; 255; 255; 255; 255; 000; 000;  0.000000;  0.000000; 000; 000; 000;  0.000000; 000; 000; 000;  0.000000; 0000; 0000; 0000; 0000; 0215; 0.000000; 0000; 0215; 0.000000; 0.000000; 0.000000; 0.000000; 0.000000; 0000; 0.000000; 0.000000; 0000;  0.000000;  0.000000;  0.000000; 0; 0;  0.000000; 0.000000; 0.000000; 0.000000;  0.000000;  0.000000;  0.000000; 0; -0.012561; -0.034220; -0.602177; -0.000092; -0.000004; -0.000012;  215; 191.836442; 0073; -718.000000; -1960.000000; -34525.000000; 0215; 0.000000; 0.000000; 0.000000 ; 3143; 0.000000; 0.000000; 0.000000; 0.000000; 0.000000; 0.000000; 0.000000; 0.000000; 0.000000; 0.000000; 0.000000; 0.000000; 0000; 0003; 0.823808; 0.566797; 0.009061; -0.566731; 0.823147; 0.035285; 0.012541; -0.034203; 0.999336; 0.000000; 0.000000; 0.000000; 0; 0.000000; 0.000000; 0.000000; 0.000000; 31; 18388; 3143; 296; 0; 1.414214; 315; -1; 88; 72; 0; 51; 24; 0; 85; 24; 1; 149; 28; 1; 164; 31; 0; 23; 54; 0; 51; 54; 0; 85; 54; 0; 147; 45; 0; 149; 54; 0; 23; 90; 0; 51; 90; 0; 85; 90; 0; 119; 90; 0; 149; 90; 0; 23; 119; 0; 51; 119; 0; 85; 119; 0; 119; 119; 0; 149; 119; 0; 0; 0; 0; 0; 0; 0; 0; 0; 0; 0; 0; 0; 0; 0; 0; 0; 0; 0; 0; 0; 0; 0; 0; 0; 0; 0; 0; 0; 0; 0; 0; 0; 0; 0; 0; 0; 0.000000; 0; 0; 0; 0; 0; 0; 0.000000; 0; 0; 0; 0; 0; 0; 0.000000; 0; 0; 0; 0; 0; 0; 0.000000; 0.000000; 0.000000; 0.000000; 0.000000; 0.000000; 0.000000; 0.000000; 0.000000; 0.000000; 0.000000; 0.000000; 0.000000; 0.000000; 0.000000; 0.000000; 0.000000; 0.000000; 0.000000; 0.000000; 0.000000; 0.000000; 0.000000; 0.000000; 0.000000; 0.000000; 0.000000; 4979; 0; 1334101819.053548
0; 2408185876;191.857429; 2108; 1988; 3048; 1682; 1685; 1669; 1640; 1651; 12006; 0000; 0000; 1695; 0001; 0792; 1788; 0000; 0000; 13041; 0000; 0120; 40.559685; 1527;  43.045891;  42.340126; -983.242859; -0.214485;  0.047892; -0.053226; -1.184599; -0.005391;  0.000000;  2504.000000; -2465.000000;  0000; 0000; 0000; 0000; 0000; 000000; 000000; 000000;  3.227897; -0.682448;  0.000000; 0000; 0000; 0000; 0000; 0000; 290717696; 000; 000; 000; 000; 255; 255; 255; 255; 000; 000;  0.000000;  0.000000; 000; 000; 000;  0.000000; 000; 000; 000;  0.000000; 0000; 0000; 0000; 0000; 0215; 0.000000; 0000; 0215; 0.000000; 0.000000; 0.000000; 0.000000; 0.000000; 0000; 0.000000; 0.000000; 0000;  0.000000;  0.000000;  0.000000; 0; 0;  0.000000; 0.000000; 0.000000; 0.000000;  0.000000;  0.000000;  0.000000; 0; -0.012541; -0.034213; -0.602586; -0.000019; -0.000019; -0.000015;  215; 191.853161; 0073; -718.000000; -1960.000000; -34531.000000; 0215; 0.000000; 0.000000; 0.000000 ; 3143; 0.000000; 0.000000; 0.000000; 0.000000; 0.000000; 0.000000; 0.000000; 0.000000; 0.000000; 0.000000; 0.000000; 0.000000; 0000; 0003; 0.823750; 0.566881; 0.009068; -0.566815; 0.823089; 0.035292; 0.012543; -0.034212; 0.999336; 0.000000; 0.000000; 0.000000; 0; 0.000000; 0.000000; 0.000000; 0.000000; 31; 18388; 3143; 296; 0; 1.414214; 314; -1; 88; 72; 0; 51; 24; 0; 85; 24; 1; 149; 28; 1; 164; 31; 0; 23; 54; 0; 51; 54; 0; 85; 54; 0; 147; 45; 0; 149; 54; 0; 23; 90; 0; 51; 90; 0; 85; 90; 0; 119; 90; 0; 149; 90; 0; 23; 119; 0; 51; 119; 0; 85; 119; 0; 119; 119; 0; 149; 119; 0; 0; 0; 0; 0; 0; 0; 0; 0; 0; 0; 0; 0; 0; 0; 0; 0; 0; 0; 0; 0; 0; 0; 0; 0; 0; 0; 0; 0; 0; 0; 0; 0; 0; 0; 0; 0; 0.000000; 0; 0; 0; 0; 0; 0; 0.000000; 0; 0; 0; 0; 0; 0; 0.000000; 0; 0; 0; 0; 0; 0; 0.000000; 0.000000; 0.000000; 0.000000; 0.000000; 0.000000; 0.000000; 0.000000; 0.000000; 0.000000; 0.000000; 0.000000; 0.000000; 0.000000; 0.000000; 0.000000; 0.000000; 0.000000; 0.000000; 0.000000; 0.000000; 0.000000; 0.000000; 0.000000; 0.000000; 0.000000; 0.000000; 5014; 0; 1334101819.058711
0; 2408185876;191.862414; 2108; 1988; 3052; 1682; 1684; 1669; 1640; 1649; 12006; 0000; 0000; 1695; 0001; 0000; 0000; 3758; 0000; 13205; 0000; 0120; 40.559502; 1527;  43.445801;  43.052357; -986.147156; -0.276742;  0.112544; -0.051194; -1.184613; -0.005389;  0.000000;  2520.000000; -2499.000000;  0000; 0000; 0000; 0000; 0000; 000000; 000000; 000000;  3.227897; -0.682448;  0.000000; 0000; 0000; 0000; 0000; 0000; 290717696; 000; 000; 000; 000; 255; 255; 255; 255; 000; 000;  0.000000;  0.000000; 000; 000; 000;  0.000000; 000; 000; 000;  0.000000; 0000; 0000; 0000; 0000; 0215; 0.000000; 0000; 0215; 0.000000; 0.000000; 0.000000; 0.000000; 0.000000; 0000; 0.000000; 0.000000; 0000;  0.000000;  0.000000;  0.000000; 0; 0;  0.000000; 0.000000; 0.000000; 0.000000;  0.000000;  0.000000;  0.000000; 0; -0.012541; -0.034213; -0.602586; -0.000019; -0.000019; -0.000015;  215; 191.853161; 0073; -718.000000; -1961.000000; -34537.000000; 0215; 0.000000; 0.000000; 0.000000 ; 3143; 0.000000; 0.000000; 0.000000; 0.000000; 0.000000; 0.000000; 0.000000; 0.000000; 0.000000; 0.000000; 0.000000; 0.000000; 0000; 0003; 0.823691; 0.566966; 0.009084; -0.566900; 0.823030; 0.035301; 0.012538; -0.034227; 0.999335; 0.000000; 0.000000; 0.000000; 0; 0.000000; 0.000000; 0.000000; 0.000000; 31; 18388; 3143; 297; 0; 1.414214; 313; -1; 88; 72; 0; 51; 24; 0; 85; 24; 1; 149; 28; 1; 164; 31; 0; 23; 54; 0; 51; 54; 0; 85; 54; 0; 147; 45; 0; 149; 54; 0; 23; 90; 0; 51; 90; 0; 85; 90; 0; 119; 90; 0; 149; 90; 0; 23; 119; 0; 51; 119; 0; 85; 119; 0; 119; 119; 0; 149; 119; 0; 0; 0; 0; 0; 0; 0; 0; 0; 0; 0; 0; 0; 0; 0; 0; 0; 0; 0; 0; 0; 0; 0; 0; 0; 0; 0; 0; 0; 0; 0; 0; 0; 0; 0; 0; 0; 0.000000; 0; 0; 0; 0; 0; 0; 0.000000; 0; 0; 0; 0; 0; 0; 0.000000; 0; 0; 0; 0; 0; 0; 0.000000; 0.000000; 0.000000; 0.000000; 0.000000; 0.000000; 0.000000; 0.000000; 0.000000; 0.000000; 0.000000; 0.000000; 0.000000; 0.000000; 0.000000; 0.000000; 0.000000; 0.000000; 0.000000; 0.000000; 0.000000; 0.000000; 0.000000; 0.000000; 0.000000; 0.000000; 0.000000; 4948; 0; 1334101819.063852
0; 2408185876;191.867428; 2104; 1988; 3052; 1683; 1684; 1669; 1641; 1649; 12006; 0000; 0000; 1695; 0001; 0000; 0000; 3758; 0000; 13367; 0000; 0120; 40.559319; 1526;  41.094406;  43.015083; -988.958496; -0.270022;  0.092363; -0.050425; -1.184628; -0.005373;  0.000000;  2377.000000; -2490.000000;  0000; 0000; 0000; 0000; 0000; 000000; 000000; 000000;  3.227897; -0.682448;  0.000000; 0000; 0000; 0000; 0000; 0000; 290717696; 000; 000; 000; 000; 255; 255; 255; 255; 000; 000;  0.000000;  0.000000; 000; 000; 000;  0.000000; 000; 000; 000;  0.000000; 0000; 0000; 0000; 0000; 0215; 0.000000; 0000; 0215; 0.000000; 0.000000; 0.000000; 0.000000; 0.000000; 0000; 0.000000; 0.000000; 0000;  0.000000;  0.000000;  0.000000; 0; 0;  0.000000; 0.000000; 0.000000; 0.000000;  0.000000;  0.000000;  0.000000; 0; -0.012541; -0.034213; -0.602586; -0.000019; -0.000019; -0.000015;  215; 191.853161; 0073; -718.000000; -1962.000000; -34543.000000; 0215; 0.000000; 0.000000; 0.000000 ; 3143; 0.000000; 0.000000; 0.000000; 0.000000; 0.000000; 0.000000; 0.000000; 0.000000; 0.000000; 0.000000; 0.000000; 0.000000; 0000; 0003; 0.823633; 0.567050; 0.009093; -0.566984; 0.822971; 0.035314; 0.012542; -0.034241; 0.999335; 0.000000; 0.000000; 0.000000; 0; 0.000000; 0.000000; 0.000000; 0.000000; 31; 18388; 3143; 297; 0; 1.414214; 313; -1; 88; 72; 0; 51; 24; 0; 85; 24; 1; 149; 28; 1; 164; 31; 0; 23; 54; 0; 51; 54; 0; 85; 54; 0; 147; 45; 0; 149; 54; 0; 23; 90; 0; 51; 90; 0; 85; 90; 0; 119; 90; 0; 149; 90; 0; 23; 119; 0; 51; 119; 0; 85; 119; 0; 119; 119; 0; 149; 119; 0; 0; 0; 0; 0; 0; 0; 0; 0; 0; 0; 0; 0; 0; 0; 0; 0; 0; 0; 0; 0; 0; 0; 0; 0; 0; 0; 0; 0; 0; 0; 0; 0; 0; 0; 0; 0; 0.000000; 0; 0; 0; 0; 0; 0; 0.000000; 0; 0; 0; 0; 0; 0; 0.000000; 0; 0; 0; 0; 0; 0; 0.000000; 0.000000; 0.000000; 0.000000; 0.000000; 0.000000; 0.000000; 0.000000; 0.000000; 0.000000; 0.000000; 0.000000; 0.000000; 0.000000; 0.000000; 0.000000; 0.000000; 0.000000; 0.000000; 0.000000; 0.000000; 0.000000; 0.000000; 0.000000; 0.000000; 0.000000; 0.000000; 4975; 0; 1334101819.069628
0; 2408185876;191.872424; 2108; 1988; 3056; 1682; 1684; 1669; 1640; 1647; 12006; 0000; 0000; 1694; 0001; 0000; 0000; 3758; 0000; 13531; 0000; 0120; 40.559135; 1527;  41.180634;  43.134022; -990.566406; -0.152477;  0.065140; -0.051441; -1.184642; -0.005359;  0.000000;  2378.000000; -2493.000000;  0000; 0000; 0000; 0000; 0000; 000000; 000000; 000000;  3.227897; -0.682448;  0.000000; 0000; 0000; 0000; 0000; 0000; 290717696; 000; 000; 000; 000; 255; 255; 255; 255; 000; 000;  0.000000;  0.000000; 000; 000; 000;  0.000000; 000; 000; 000;  0.000000; 0000; 0000; 0000; 0000; 0215; 0.000000; 0000; 0215; 0.000000; 0.000000; 0.000000; 0.000000; 0.000000; 0000; 0.000000; 0.000000; 0000;  0.000000;  0.000000;  0.000000; 0; 0;  0.000000; 0.000000; 0.000000; 0.000000;  0.000000;  0.000000;  0.000000; 0; -0.012541; -0.034213; -0.602586; -0.000069;  0.000037; -0.000015;  215; 191.853161; 0073; -718.000000; -1962.000000; -34549.000000; 0215; 0.000000; 0.000000; 0.000000 ; 3143; 0.000000; 0.000000; 0.000000; 0.000000; 0.000000; 0.000000; 0.000000; 0.000000; 0.000000; 0.000000; 0.000000; 0.000000; 0000; 0003; 0.823575; 0.567134; 0.009094; -0.567068; 0.822913; 0.035320; 0.012547; -0.034246; 0.999335; 0.000000; 0.000000; 0.000000; 0; 0.000000; 0.000000; 0.000000; 0.000000; 31; 18388; 3143; 297; 0; 1.732051; 312; -1; 88; 72; 0; 51; 24; 0; 85; 24; 1; 149; 28; 1; 164; 31; 0; 23; 54; 0; 51; 54; 0; 85; 54; 0; 147; 45; 0; 149; 54; 0; 23; 90; 0; 51; 90; 0; 85; 90; 0; 119; 90; 0; 149; 90; 0; 23; 119; 0; 51; 119; 0; 85; 119; 0; 119; 119; 0; 149; 119; 0; 0; 0; 0; 0; 0; 0; 0; 0; 0; 0; 0; 0; 0; 0; 0; 0; 0; 0; 0; 0; 0; 0; 0; 0; 0; 0; 0; 0; 0; 0; 0; 0; 0; 0; 0; 0; 0.000000; 0; 0; 0; 0; 0; 0; 0.000000; 0; 0; 0; 0; 0; 0; 0.000000; 0; 0; 0; 0; 0; 0; 0.000000; 0.000000; 0.000000; 0.000000; 0.000000; 0.000000; 0.000000; 0.000000; 0.000000; 0.000000; 0.000000; 0.000000; 0.000000; 0.000000; 0.000000; 0.000000; 0.000000; 0.000000; 0.000000; 0.000000; 0.000000; 0.000000; 0.000000; 0.000000; 0.000000; 0.000000; 0.000000; 4955; 0; 1334101819.073902
0; 2408185876;191.877443; 2108; 1988; 3052; 1682; 1684; 1669; 1644; 1648; 12006; 0000; 0000; 1695; 0001; 0000; 0000; 3758; 0000; 13693; 0000; 0120; 40.558952; 1527;  43.835575;  43.041809; -990.099121; -0.197566;  0.242830; -0.051116; -1.184658; -0.005358;  0.000000;  2532.000000; -2489.000000;  0000; 0000; 0000; 0000; 0000; 000000; 000000; 000000;  3.227897; -0.682448;  0.000000; 0000; 0000; 0000; 0000; 0000; 290717696; 000; 000; 000; 000; 255; 255; 255; 255; 000; 000;  0.000000;  0.000000; 000; 000; 000;  0.000000; 000; 000; 000;  0.000000; 0000; 0000; 0000; 0000; 0215; 0.000000; 0000; 0215; 0.000000; 0.000000; 0.000000; 0.000000; 0.000000; 0000; 0.000000; 0.000000; 0000;  0.000000;  0.000000;  0.000000; 0; 0;  0.000000; 0.000000; 0.000000; 0.000000;  0.000000;  0.000000;  0.000000; 0; -0.012542; -0.034251; -0.602894; -0.000069;  0.000037; -0.000015;  215; 191.869702; 0073; -717.000000; -1963.000000; -34555.000000; 0215; 0.000000; 0.000000; 0.000000 ; 3143; 0.000000; 0.000000; 0.000000; 0.000000; 0.000000; 0.000000; 0.000000; 0.000000; 0.000000; 0.000000; 0.000000; 0.000000; 0000; 0003; 0.823517; 0.567219; 0.009117; -0.567154; 0.822855; 0.035316; 0.012530; -0.034254; 0.999335; 0.000000; 0.000000; 0.000000; 0; 0.000000; 0.000000; 0.000000; 0.000000; 31; 18388; 3143; 297; 0; 1.732051; 311; -1; 88; 72; 0; 51; 24; 0; 85; 24; 1; 149; 28; 1; 164; 31; 0; 23; 54; 0; 51; 54; 0; 85; 54; 0; 147; 45; 0; 149; 54; 0; 23; 90; 0; 51; 90; 0; 85; 90; 0; 119; 90; 0; 149; 90; 0; 23; 119; 0; 51; 119; 0; 85; 119; 0; 119; 119; 0; 149; 119; 0; 0; 0; 0; 0; 0; 0; 0; 0; 0; 0; 0; 0; 0; 0; 0; 0; 0; 0; 0; 0; 0; 0; 0; 0; 0; 0; 0; 0; 0; 0; 0; 0; 0; 0; 0; 0; 0.000000; 0; 0; 0; 0; 0; 0; 0.000000; 0; 0; 0; 0; 0; 0; 0.000000; 0; 0; 0; 0; 0; 0; 0.000000; 0.000000; 0.000000; 0.000000; 0.000000; 0.000000; 0.000000; 0.000000; 0.000000; 0.000000; 0.000000; 0.000000; 0.000000; 0.000000; 0.000000; 0.000000; 0.000000; 0.000000; 0.000000; 0.000000; 0.000000; 0.000000; 0.000000; 0.000000; 0.000000; 0.000000; 0.000000; 4970; 0; 1334101819.078710
0; 2408185876;191.882789; 2108; 1988; 3056; 1682; 1684; 1669; 1639; 1652; 12006; 0000; 0000; 1695; 0001; 0000; 0000; 3758; 0000; 13857; 0000; 0120; 40.558769; 1527;  43.489468;  42.977921; -989.732910; -0.242390;  0.198338; -0.051183; -1.184673; -0.005356;  0.000000;  2513.000000; -2486.000000;  0000; 0000; 0000; 0000; 0000; 000000; 000000; 000000;  3.227897; -0.682448;  0.000000; 0000; 0000; 0000; 0000; 0000; 290717696; 000; 000; 000; 000; 255; 255; 255; 255; 000; 000;  0.000000;  0.000000; 000; 000; 000;  0.000000; 000; 000; 000;  0.000000; 0000; 0000; 0000; 0000; 0215; 0.000000; 0000; 0215; 0.000000; 0.000000; 0.000000; 0.000000; 0.000000; 0000; 0.000000; 0.000000; 0000;  0.000000;  0.000000;  0.000000; 0; 0;  0.000000; 0.000000; 0.000000; 0.000000;  0.000000;  0.000000;  0.000000; 0; -0.012542; -0.034251; -0.602894; -0.000069;  0.000037; -0.000015;  215; 191.869702; 0073; -717.000000; -1963.000000; -34560.000000; 0215; 0.000000; 0.000000; 0.000000 ; 3144; 0.000000; 0.000000; 0.000000; 0.000000; 0.000000; 0.000000; 0.000000; 0.000000; 0.000000; 0.000000; 0.000000; 0.000000; 0000; 0003; 0.823459; 0.567303; 0.009138; -0.567238; 0.822796; 0.035317; 0.012517; -0.034266; 0.999334; 0.000000; 0.000000; 0.000000; 0; 0.000000; 0.000000; 0.000000; 0.000000; 31; 18316; 3144; 298; 0; 1.732051; 311; -1; 88; 72; 0; 51; 24; 0; 85; 24; 1; 149; 28; 1; 164; 31; 0; 23; 54; 0; 51; 54; 0; 85; 54; 0; 147; 45; 0; 149; 54; 0; 23; 90; 0; 51; 90; 0; 85; 90; 0; 119; 90; 0; 149; 90; 0; 23; 119; 0; 51; 119; 0; 85; 119; 0; 119; 119; 0; 149; 119; 0; 0; 0; 0; 0; 0; 0; 0; 0; 0; 0; 0; 0; 0; 0; 0; 0; 0; 0; 0; 0; 0; 0; 0; 0; 0; 0; 0; 0; 0; 0; 0; 0; 0; 0; 0; 0; 0.000000; 0; 0; 0; 0; 0; 0; 0.000000; 0; 0; 0; 0; 0; 0; 0.000000; 0; 0; 0; 0; 0; 0; 0.000000; 0.000000; 0.000000; 0.000000; 0.000000; 0.000000; 0.000000; 0.000000; 0.000000; 0.000000; 0.000000; 0.000000; 0.000000; 0.000000; 0.000000; 0.000000; 0.000000; 0.000000; 0.000000; 0.000000; 0.000000; 0.000000; 0.000000; 0.000000; 0.000000; 0.000000; 0.000000; 5304; 0; 1334101819.084273
0; 2408185876;191.887419; 2108; 1988; 3052; 1682; 1684; 1669; 1641; 1648; 12006; 0000; 0000; 1695; 0001; 0000; 0000; 3758; 0000; 14019; 0000; 0120; 40.558594; 1527;  42.996422;  42.879288; -989.960693; -0.358423;  0.240878; -0.051425; -1.184689; -0.005351;  0.000000;  2484.000000; -2480.000000;  0000; 0000; 0000; 0000; 0000; 000000; 000000; 000000;  3.227897; -0.682448;  0.000000; 0000; 0000; 0000; 0000; 0000; 290717696; 000; 000; 000; 000; 255; 255; 255; 255; 000; 000;  0.000000;  0.000000; 000; 000; 000;  0.000000; 000; 000; 000;  0.000000; 0000; 0000; 0000; 0000; 0215; 0.000000; 0000; 0215; 0.000000; 0.000000; 0.000000; 0.000000; 0.000000; 0000; 0.000000; 0.000000; 0000;  0.000000;  0.000000;  0.000000; 0; 0;  0.000000; 0.000000; 0.000000; 0.000000;  0.000000;  0.000000;  0.000000; 0; -0.012542; -0.034251; -0.602894; -0.000060;  0.000039; -0.000015;  215; 191.869702; 0073; -716.000000; -1965.000000; -34566.000000; 0215; 0.000000; 0.000000; 0.000000 ; 3144; 0.000000; 0.000000; 0.000000; 0.000000; 0.000000; 0.000000; 0.000000; 0.000000; 0.000000; 0.000000; 0.000000; 0.000000; 0000; 0003; 0.823400; 0.567387; 0.009166; -0.567323; 0.822737; 0.035326; 0.012502; -0.034287; 0.999334; 0.000000; 0.000000; 0.000000; 0; 0.000000; 0.000000; 0.000000; 0.000000; 31; 18316; 3144; 298; 0; 1.732051; 310; -1; 88; 72; 0; 51; 24; 0; 85; 24; 1; 149; 28; 1; 164; 31; 0; 23; 54; 0; 51; 54; 0; 85; 54; 0; 147; 45; 0; 149; 54; 0; 23; 90; 0; 51; 90; 0; 85; 90; 0; 119; 90; 0; 149; 90; 0; 23; 119; 0; 51; 119; 0; 85; 119; 0; 119; 119; 0; 149; 119; 0; 0; 0; 0; 0; 0; 0; 0; 0; 0; 0; 0; 0; 0; 0; 0; 0; 0; 0; 0; 0; 0; 0; 0; 0; 0; 0; 0; 0; 0; 0; 0; 0; 0; 0; 0; 0; 0.000000; 0; 0; 0; 0; 0; 0; 0.000000; 0; 0; 0; 0; 0; 0; 0.000000; 0; 0; 0; 0; 0; 0; 0.000000; 0.000000; 0.000000; 0.000000; 0.000000; 0.000000; 0.000000; 0.000000; 0.000000; 0.000000; 0.000000; 0.000000; 0.000000; 0.000000; 0.000000; 0.000000; 0.000000; 0.000000; 0.000000; 0.000000; 0.000000; 0.000000; 0.000000; 0.000000; 0.000000; 0.000000; 0.000000; 4589; 0; 1334101819.090019
0; 2408185876;191.892594; 2108; 1988; 3052; 1683; 1685; 1669; 1643; 1651; 12006; 0000; 0000; 1695; 0001; 0000; 0000; 3758; 0000; 14183; 0000; 0120; 40.558418; 1527;  43.031761;  42.754395; -987.494385; -0.169537;  0.023410; -0.051086; -1.184705; -0.005346;  0.000000;  2492.000000; -2479.000000;  0000; 0000; 0000; 0000; 0000; 000000; 000000; 000000;  3.227897; -0.682448;  0.000000; 0000; 0000; 0000; 0000; 0000; 290717696; 000; 000; 000; 000; 255; 255; 255; 255; 000; 000;  0.000000;  0.000000; 000; 000; 000;  0.000000; 000; 000; 000;  0.000000; 0000; 0000; 0000; 0000; 0215; 0.000000; 0000; 0215; 0.000000; 0.000000; 0.000000; 0.000000; 0.000000; 0000; 0.000000; 0.000000; 0000;  0.000000;  0.000000;  0.000000; 0; 0;  0.000000; 0.000000; 0.000000; 0.000000;  0.000000;  0.000000;  0.000000; 0; -0.012517; -0.034275; -0.603203; -0.000060;  0.000039; -0.000015;  215; 191.886305; 0073; -716.000000; -1965.000000; -34572.000000; 0215; 0.000000; 0.000000; 0.000000 ; 3144; 0.000000; 0.000000; 0.000000; 0.000000; 0.000000; 0.000000; 0.000000; 0.000000; 0.000000; 0.000000; 0.000000; 0.000000; 0000; 0003; 0.823342; 0.567471; 0.009169; -0.567407; 0.822679; 0.035331; 0.012506; -0.034292; 0.999334; 0.000000; 0.000000; 0.000000; 0; 0.000000; 0.000000; 0.000000; 0.000000; 31; 18316; 3144; 298; 0; 1.732051; 310; -1; 88; 72; 0; 51; 24; 0; 85; 24; 1; 149; 28; 1; 164; 31; 0; 23; 54; 0; 51; 54; 0; 85; 54; 0; 147; 45; 0; 149; 54; 0; 23; 90; 0; 51; 90; 0; 85; 90; 0; 119; 90; 0; 149; 90; 0; 23; 119; 0; 51; 119; 0; 85; 119; 0; 119; 119; 0; 149; 119; 0; 0; 0; 0; 0; 0; 0; 0; 0; 0; 0; 0; 0; 0; 0; 0; 0; 0; 0; 0; 0; 0; 0; 0; 0; 0; 0; 0; 0; 0; 0; 0; 0; 0; 0; 0; 0; 0.000000; 0; 0; 0; 0; 0; 0; 0.000000; 0; 0; 0; 0; 0; 0; 0.000000; 0; 0; 0; 0; 0; 0; 0.000000; 0.000000; 0.000000; 0.000000; 0.000000; 0.000000; 0.000000; 0.000000; 0.000000; 0.000000; 0.000000; 0.000000; 0.000000; 0.000000; 0.000000; 0.000000; 0.000000; 0.000000; 0.000000; 0.000000; 0.000000; 0.000000; 0.000000; 0.000000; 0.000000; 0.000000; 0.000000; 5124; 0; 1334101819.096260
0; 2408185876;191.897418; 2112; 1988; 3052; 1683; 1684; 1669; 1641; 1647; 12006; 0000; 0000; 1695; 0001; 0792; 1790; 0000; 0000; 14345; 0000; 0120; 40.558243; 1528;  45.279171;  42.690662; -987.412842; -0.138822;  0.065921; -0.051110; -1.184722; -0.005353;  0.000000;  2623.000000; -2475.000000;  0000; 0000; 0000; 0000; 0000; 000000; 000000; 000000;  3.227897; -0.682448;  0.000000; 0000; 0000; 0000; 0000; 0000; 290717696; 000; 000; 000; 000; 255; 255; 255; 255; 000; 000;  0.000000;  0.000000; 000; 000; 000;  0.000000; 000; 000; 000;  0.000000; 0000; 0000; 0000; 0000; 0215; 0.000000; 0000; 0215; 0.000000; 0.000000; 0.000000; 0.000000; 0.000000; 0000; 0.000000; 0.000000; 0000;  0.000000;  0.000000;  0.000000; 0; 0;  0.000000; 0.000000; 0.000000; 0.000000;  0.000000;  0.000000;  0.000000; 0; -0.012517; -0.034275; -0.603203; -0.000060;  0.000039; -0.000015;  215; 191.886305; 0073; -716.000000; -1965.000000; -34578.000000; 0215; 0.000000; 0.000000; 0.000000 ; 3144; 0.000000; 0.000000; 0.000000; 0.000000; 0.000000; 0.000000; 0.000000; 0.000000; 0.000000; 0.000000; 0.000000; 0.000000; 0000; 0003; 0.823284; 0.567555; 0.009178; -0.567492; 0.822621; 0.035329; 0.012501; -0.034294; 0.999334; 0.000000; 0.000000; 0.000000; 0; 0.000000; 0.000000; 0.000000; 0.000000; 31; 18316; 3144; 298; 0; 1.732051; 309; -1; 88; 72; 0; 51; 24; 0; 85; 24; 1; 149; 28; 1; 164; 31; 0; 23; 54; 0; 51; 54; 0; 85; 54; 0; 147; 45; 0; 149; 54; 0; 23; 90; 0; 51; 90; 0; 85; 90; 0; 119; 90; 0; 149; 90; 0; 23; 119; 0; 51; 119; 0; 85; 119; 0; 119; 119; 0; 149; 119; 0; 0; 0; 0; 0; 0; 0; 0; 0; 0; 0; 0; 0; 0; 0; 0; 0; 0; 0; 0; 0; 0; 0; 0; 0; 0; 0; 0; 0; 0; 0; 0; 0; 0; 0; 0; 0; 0.000000; 0; 0; 0; 0; 0; 0; 0.000000; 0; 0; 0; 0; 0; 0; 0.000000; 0; 0; 0; 0; 0; 0; 0.000000; 0.000000; 0.000000; 0.000000; 0.000000; 0.000000; 0.000000; 0.000000; 0.000000; 0.000000; 0.000000; 0.000000; 0.000000; 0.000000; 0.000000; 0.000000; 0.000000; 0.000000; 0.000000; 0.000000; 0.000000; 0.000000; 0.000000; 0.000000; 0.000000; 0.000000; 0.000000; 4787; 0; 1334101819.105628
0; 2408185876;191.902410; 2112; 1988; 3052; 1683; 1684; 1669; 1643; 1647; 12006; 0000; 0000; 1695; 0001; 0000; 0000; 3758; 0000; 14509; 0000; 0120; 40.558067; 1528;  47.599567;  42.649071; -987.828308;  0.106076;  0.041970; -0.051278; -1.184739; -0.005372;  0.000000;  2756.000000; -2472.000000;  0000; 0000; 0000; 0000; 0000; 000000; 000000; 000000;  3.227897; -0.682448;  0.000000; 0000; 0000; 0000; 0000; 0000; 290717696; 000; 000; 000; 000; 255; 255; 255; 255; 000; 000;  0.000000;  0.000000; 000; 000; 000;  0.000000; 000; 000; 000;  0.000000; 0000; 0000; 0000; 0000; 0215; 0.000000; 0000; 0215; 0.000000; 0.000000; 0.000000; 0.000000; 0.000000; 0000; 0.000000; 0.000000; 0000;  0.000000;  0.000000;  0.000000; 0; 0;  0.000000; 0.000000; 0.000000; 0.000000;  0.000000;  0.000000;  0.000000; 0; -0.012517; -0.034275; -0.603203; -0.000060;  0.000039; -0.000015;  215; 191.886305; 0073; -715.000000; -1964.000000; -34584.000000; 0215; 0.000000; 0.000000; 0.000000 ; 3144; 0.000000; 0.000000; 0.000000; 0.000000; 0.000000; 0.000000; 0.000000; 0.000000; 0.000000; 0.000000; 0.000000; 0.000000; 0000; 0003; 0.823226; 0.567640; 0.009180; -0.567576; 0.822563; 0.035306; 0.012490; -0.034275; 0.999334; 0.000000; 0.000000; 0.000000; 0; 0.000000; 0.000000; 0.000000; 0.000000; 31; 18316; 3144; 298; 0; 1.732051; 308; -1; 88; 72; 0; 51; 24; 0; 85; 24; 1; 149; 28; 1; 164; 31; 0; 23; 54; 0; 51; 54; 0; 85; 54; 0; 147; 45; 0; 149; 54; 0; 23; 90; 0; 51; 90; 0; 85; 90; 0; 119; 90; 0; 149; 90; 0; 23; 119; 0; 51; 119; 0; 85; 119; 0; 119; 119; 0; 149; 119; 0; 0; 0; 0; 0; 0; 0; 0; 0; 0; 0; 0; 0; 0; 0; 0; 0; 0; 0; 0; 0; 0; 0; 0; 0; 0; 0; 0; 0; 0; 0; 0; 0; 0; 0; 0; 0; 0.000000; 0; 0; 0; 0; 0; 0; 0.000000; 0; 0; 0; 0; 0; 0; 0.000000; 0; 0; 0; 0; 0; 0; 0.000000; 0.000000; 0.000000; 0.000000; 0.000000; 0.000000; 0.000000; 0.000000; 0.000000; 0.000000; 0.000000; 0.000000; 0.000000; 0.000000; 0.000000; 0.000000; 0.000000; 0.000000; 0.000000; 0.000000; 0.000000; 0.000000; 0.000000; 0.000000; 0.000000; 0.000000; 0.000000; 4954; 0; 1334101819.105756
0; 2408185876;191.907479; 2112; 1988; 3052; 1683; 1684; 1669; 1641; 1650; 12006; 0000; 0000; 1695; 0001; 0000; 0000; 3758; 0000; 14671; 0000; 0120; 40.557892; 1528;  47.047520;  42.659756; -987.615173;  0.177308;  0.124791; -0.051192; -1.184756; -0.005389;  0.000000;  2724.000000; -2473.000000;  0000; 0000; 0000; 0000; 0000; 000000; 000000; 000000;  3.227897; -0.682448;  0.000000; 0000; 0000; 0000; 0000; 0000; 290717696; 000; 000; 000; 000; 255; 255; 255; 255; 000; 000;  0.000000;  0.000000; 000; 000; 000;  0.000000; 000; 000; 000;  0.000000; 0000; 0000; 0000; 0000; 0215; 0.000000; 0000; 0215; 0.000000; 0.000000; 0.000000; 0.000000; 0.000000; 0000; 0.000000; 0.000000; 0000;  0.000000;  0.000000;  0.000000; 0; 0;  0.000000; 0.000000; 0.000000; 0.000000;  0.000000;  0.000000;  0.000000; 0; -0.012490; -0.034284; -0.603613; -0.000066;  0.000039; -0.000015;  215; 191.902959; 0073; -714.000000; -1962.000000; -34590.000000; 0215; 0.000000; 0.000000; 0.000000 ; 3144; 0.000000; 0.000000; 0.000000; 0.000000; 0.000000; 0.000000; 0.000000; 0.000000; 0.000000; 0.000000; 0.000000; 0.000000; 0000; 0003; 0.823168; 0.567724; 0.009182; -0.567661; 0.822506; 0.035275; 0.012474; -0.034249; 0.999335; 0.000000; 0.000000; 0.000000; 0; 0.000000; 0.000000; 0.000000; 0.000000; 31; 18316; 3144; 299; 0; 1.732051; 308; -1; 88; 72; 0; 51; 24; 0; 85; 24; 1; 149; 28; 1; 164; 31; 0; 23; 54; 0; 51; 54; 0; 85; 54; 0; 147; 45; 0; 149; 54; 0; 23; 90; 0; 51; 90; 0; 85; 90; 0; 119; 90; 0; 149; 90; 0; 23; 119; 0; 51; 119; 0; 85; 119; 0; 119; 119; 0; 149; 119; 0; 0; 0; 0; 0; 0; 0; 0; 0; 0; 0; 0; 0; 0; 0; 0; 0; 0; 0; 0; 0; 0; 0; 0; 0; 0; 0; 0; 0; 0; 0; 0; 0; 0; 0; 0; 0; 0.000000; 0; 0; 0; 0; 0; 0; 0.000000; 0; 0; 0; 0; 0; 0; 0.000000; 0; 0; 0; 0; 0; 0; 0.000000; 0.000000; 0.000000; 0.000000; 0.000000; 0.000000; 0.000000; 0.000000; 0.000000; 0.000000; 0.000000; 0.000000; 0.000000; 0.000000; 0.000000; 0.000000; 0.000000; 0.000000; 0.000000; 0.000000; 0.000000; 0.000000; 0.000000; 0.000000; 0.000000; 0.000000; 0.000000; 5017; 0; 1334101819.109541
0; 2408185876;191.912455; 2112; 1984; 3048; 1683; 1684; 1669; 1639; 1650; 12006; 0000; 0000; 1695; 0001; 0000; 0000; 3758; 0000; 14835; 0000; 0120; 40.559280; 1526;  46.658813;  45.021832; -985.228943;  0.059637;  0.263311; -0.051192; -1.184760; -0.005403;  0.000000;  2708.000000; -2616.000000;  0000; 0000; 0000; 0000; 0000; 000000; 000000; 000000;  3.227897; -0.682448;  0.000000; 0000; 0000; 0000; 0000; 0000; 290717696; 000; 000; 000; 000; 255; 255; 255; 255; 000; 000;  0.000000;  0.000000; 000; 000; 000;  0.000000; 000; 000; 000;  0.000000; 0000; 0000; 0000; 0000; 0215; 0.000000; 0000; 0215; 0.000000; 0.000000; 0.000000; 0.000000; 0.000000; 0000; 0.000000; 0.000000; 0000;  0.000000;  0.000000;  0.000000; 0; 0;  0.000000; 0.000000; 0.000000; 0.000000;  0.000000;  0.000000;  0.000000; 0; -0.012490; -0.034284; -0.603613; -0.000066;  0.000039; -0.000015;  215; 191.902959; 0073; -713.000000; -1962.000000; -34596.000000; 0215; 0.000000; 0.000000; 0.000000 ; 3144; 0.000000; 0.000000; 0.000000; 0.000000; 0.000000; 0.000000; 0.000000; 0.000000; 0.000000; 0.000000; 0.000000; 0.000000; 0000; 0003; 0.823110; 0.567808; 0.009203; -0.567746; 0.822449; 0.035252; 0.012447; -0.034241; 0.999336; 0.000000; 0.000000; 0.000000; 0; 0.000000; 0.000000; 0.000000; 0.000000; 31; 18316; 3144; 299; 0; 1.000000; 307; -1; 88; 72; 0; 51; 24; 0; 85; 24; 1; 149; 28; 1; 164; 31; 0; 23; 54; 0; 51; 54; 0; 85; 54; 0; 147; 45; 0; 149; 54; 0; 23; 90; 0; 51; 90; 0; 85; 90; 0; 119; 90; 0; 149; 90; 0; 23; 119; 0; 51; 119; 0; 85; 119; 0; 119; 119; 0; 149; 119; 0; 0; 0; 0; 0; 0; 0; 0; 0; 0; 0; 0; 0; 0; 0; 0; 0; 0; 0; 0; 0; 0; 0; 0; 0; 0; 0; 0; 0; 0; 0; 0; 0; 0; 0; 0; 0; 0.000000; 0; 0; 0; 0; 0; 0; 0.000000; 0; 0; 0; 0; 0; 0; 0.000000; 0; 0; 0; 0; 0; 0; 0.000000; 0.000000; 0.000000; 0.000000; 0.000000; 0.000000; 0.000000; 0.000000; 0.000000; 0.000000; 0.000000; 0.000000; 0.000000; 0.000000; 0.000000; 0.000000; 0.000000; 0.000000; 0.000000; 0.000000; 0.000000; 0.000000; 0.000000; 0.000000; 0.000000; 0.000000; 0.000000; 4925; 0; 1334101819.113966
0; 2408185876;191.917453; 2112; 1984; 3048; 1682; 1684; 1669; 1642; 1650; 12006; 0000; 0000; 1695; 0001; 0000; 0000; 3758; 0000; 14997; 0000; 0120; 40.559097; 1527;  46.710068;  47.382824; -982.748230; -0.056165;  0.174138; -0.051219; -1.184750; -0.005417;  0.000000;  2718.000000; -2760.000000;  0000; 0000; 0000; 0000; 0000; 000000; 000000; 000000;  3.227897; -0.682448;  0.000000; 0000; 0000; 0000; 0000; 0000; 290717696; 000; 000; 000; 000; 255; 255; 255; 255; 000; 000;  0.000000;  0.000000; 000; 000; 000;  0.000000; 000; 000; 000;  0.000000; 0000; 0000; 0000; 0000; 0215; 0.000000; 0000; 0215; 0.000000; 0.000000; 0.000000; 0.000000; 0.000000; 0000; 0.000000; 0.000000; 0000;  0.000000;  0.000000;  0.000000; 0; 0;  0.000000; 0.000000; 0.000000; 0.000000;  0.000000;  0.000000;  0.000000; 0; -0.012490; -0.034284; -0.603613; -0.000066;  0.000039; -0.000015;  215; 191.902959; 0073; -712.000000; -1962.000000; -34602.000000; 0215; 0.000000; 0.000000; 0.000000 ; 3144; 0.000000; 0.000000; 0.000000; 0.000000; 0.000000; 0.000000; 0.000000; 0.000000; 0.000000; 0.000000; 0.000000; 0.000000; 0000; 0003; 0.823052; 0.567892; 0.009227; -0.567831; 0.822390; 0.035247; 0.012428; -0.034250; 0.999336; 0.000000; 0.000000; 0.000000; 0; 0.000000; 0.000000; 0.000000; 0.000000; 31; 18316; 3144; 299; 0; 1.000000; 306; -1; 88; 72; 0; 51; 24; 0; 85; 24; 1; 149; 28; 1; 164; 31; 0; 23; 54; 0; 51; 54; 0; 85; 54; 0; 147; 45; 0; 149; 54; 0; 23; 90; 0; 51; 90; 0; 85; 90; 0; 119; 90; 0; 149; 90; 0; 23; 119; 0; 51; 119; 0; 85; 119; 0; 119; 119; 0; 149; 119; 0; 0; 0; 0; 0; 0; 0; 0; 0; 0; 0; 0; 0; 0; 0; 0; 0; 0; 0; 0; 0; 0; 0; 0; 0; 0; 0; 0; 0; 0; 0; 0; 0; 0; 0; 0; 0; 0.000000; 0; 0; 0; 0; 0; 0; 0.000000; 0; 0; 0; 0; 0; 0; 0.000000; 0; 0; 0; 0; 0; 0; 0.000000; 0.000000; 0.000000; 0.000000; 0.000000; 0.000000; 0.000000; 0.000000; 0.000000; 0.000000; 0.000000; 0.000000; 0.000000; 0.000000; 0.000000; 0.000000; 0.000000; 0.000000; 0.000000; 0.000000; 0.000000; 0.000000; 0.000000; 0.000000; 0.000000; 0.000000; 0.000000; 4957; 0; 1334101819.118747
0; 2408185876;191.922526; 2112; 1984; 3048; 1683; 1684; 1669; 1644; 1648; 12006; 0000; 0000; 1695; 0001; 0000; 0000; 3758; 0000; 15161; 0000; 0120; 40.558914; 1527;  46.773426;  46.972591; -983.394714; -0.050026;  0.237833; -0.051179; -1.184743; -0.005431;  0.000000;  2720.000000; -2734.000000;  0000; 0000; 0000; 0000; 0000; 000000; 000000; 000000;  3.227897; -0.682448;  0.000000; 0000; 0000; 0000; 0000; 0000; 290717696; 000; 000; 000; 000; 255; 255; 255; 255; 000; 000;  0.000000;  0.000000; 000; 000; 000;  0.000000; 000; 000; 000;  0.000000; 0000; 0000; 0000; 0000; 0215; 0.000000; 0000; 0215; 0.000000; 0.000000; 0.000000; 0.000000; 0.000000; 0000; 0.000000; 0.000000; 0000;  0.000000;  0.000000;  0.000000; 0; 0;  0.000000; 0.000000; 0.000000; 0.000000;  0.000000;  0.000000;  0.000000; 0; -0.012429; -0.034259; -0.603921;  0.000033;  0.000042; -0.000015;  215; 191.919569; 0073; -710.000000; -1963.000000; -34608.000000; 0215; 0.000000; 0.000000; 0.000000 ; 3144; 0.000000; 0.000000; 0.000000; 0.000000; 0.000000; 0.000000; 0.000000; 0.000000; 0.000000; 0.000000; 0.000000; 0.000000; 0000; 0003; 0.822993; 0.567976; 0.009255; -0.567915; 0.822332; 0.035238; 0.012403; -0.034256; 0.999336; 0.000000; 0.000000; 0.000000; 0; 0.000000; 0.000000; 0.000000; 0.000000; 31; 18316; 3144; 299; 0; 1.000000; 305; -1; 88; 72; 0; 51; 24; 0; 85; 24; 1; 149; 28; 1; 164; 31; 0; 23; 54; 0; 51; 54; 0; 85; 54; 0; 147; 45; 0; 149; 54; 0; 23; 90; 0; 51; 90; 0; 85; 90; 0; 119; 90; 0; 149; 90; 0; 23; 119; 0; 51; 119; 0; 85; 119; 0; 119; 119; 0; 149; 119; 0; 0; 0; 0; 0; 0; 0; 0; 0; 0; 0; 0; 0; 0; 0; 0; 0; 0; 0; 0; 0; 0; 0; 0; 0; 0; 0; 0; 0; 0; 0; 0; 0; 0; 0; 0; 0; 0.000000; 0; 0; 0; 0; 0; 0; 0.000000; 0; 0; 0; 0; 0; 0; 0.000000; 0; 0; 0; 0; 0; 0; 0.000000; 0.000000; 0.000000; 0.000000; 0.000000; 0.000000; 0.000000; 0.000000; 0.000000; 0.000000; 0.000000; 0.000000; 0.000000; 0.000000; 0.000000; 0.000000; 0.000000; 0.000000; 0.000000; 0.000000; 0.000000; 0.000000; 0.000000; 0.000000; 0.000000; 0.000000; 0.000000; 5031; 0; 1334101819.123870
